rgb_luminance,trials.thisRepN,trials.thisTrialN,trials.thisN,trials.thisIndex,patch_background.started,patch_background.stopped,patch_foreground.started,patch_foreground.stopped,patch_test.started,patch_test.stopped,key_response.keys,key_response.rt,key_response.started,key_response.stopped,text_task.started,text_task.stopped,text.started,text.stopped,participant,session,date,expName,psychopyVersion,frameRate,
0.5,0,0,0,4,63.04319460003171,None,63.04319460003171,None,63.04319460003171,None,right,4.9089894000208005,63.137540200026706,None,63.04319460003171,None,68.08833070006222,None,e,001,2022_Jan_23_1047,contrast,2021.2.3,60.534996189768655,
0.6,0,1,1,6,68.300776100019,None,68.300776100019,None,68.300776100019,None,right,0.752208000048995,68.38248260004912,None,68.300776100019,None,69.16630250005983,None,e,001,2022_Jan_23_1047,contrast,2021.2.3,60.534996189768655,
0.7,0,2,2,7,69.38439240003936,None,69.38439240003936,None,69.38439240003936,None,right,0.6309642000123858,69.4636042000493,None,69.38439240003936,None,70.13023530005012,None,e,001,2022_Jan_23_1047,contrast,2021.2.3,60.534996189768655,
0.9,0,3,3,8,70.34579150006175,None,70.34579150006175,None,70.34579150006175,None,right,0.8967920000432059,70.41377460001968,None,70.34579150006175,None,71.34874230006244,None,e,001,2022_Jan_23_1047,contrast,2021.2.3,60.534996189768655,
0.3,0,4,4,1,71.57201560004614,None,71.57201560004614,None,71.57201560004614,None,right,2.591173099935986,71.64738440001383,None,71.57201560004614,None,74.26526900008321,None,e,001,2022_Jan_23_1047,contrast,2021.2.3,60.534996189768655,
0.55,0,5,5,5,74.48013030004222,None,74.48013030004222,None,74.48013030004222,None,right,1.486198400030844,74.56027130002622,None,74.48013030004222,None,76.0811128000496,None,e,001,2022_Jan_23_1047,contrast,2021.2.3,60.534996189768655,
0.45,0,6,6,3,76.29131610004697,None,76.29131610004697,None,76.29131610004697,None,right,3.1124455000972375,76.37440460000653,None,76.29131610004697,None,79.511915900046,None,e,001,2022_Jan_23_1047,contrast,2021.2.3,60.534996189768655,
0.4,0,7,7,2,79.72343250003178,None,79.72343250003178,None,79.72343250003178,None,right,0.5139224999584258,79.8045548000373,None,79.72343250003178,None,80.34541920002084,None,e,001,2022_Jan_23_1047,contrast,2021.2.3,60.534996189768655,
0.1,0,8,8,0,80.55542530003004,None,80.55542530003004,None,80.55542530003004,None,left,0.3513818000210449,80.63906540011521,None,80.55542530003004,None,81.00971980008762,None,e,001,2022_Jan_23_1047,contrast,2021.2.3,60.534996189768655,
0.45,1,0,9,3,81.22089890006464,None,81.22089890006464,None,81.22089890006464,None,right,0.7727871000533924,81.2900048000738,None,81.22089890006464,None,82.08575910003856,None,e,001,2022_Jan_23_1047,contrast,2021.2.3,60.534996189768655,
0.9,1,1,10,8,82.28866840002593,None,82.28866840002593,None,82.28866840002593,None,right,0.4611732999328524,82.36932210007217,None,82.28866840002593,None,82.87276690010913,None,e,001,2022_Jan_23_1047,contrast,2021.2.3,60.534996189768655,
0.7,1,2,11,7,83.08694700000342,None,83.08694700000342,None,83.08694700000342,None,right,1.548758800025098,83.15391040011309,None,83.08694700000342,None,84.73825720010791,None,e,001,2022_Jan_23_1047,contrast,2021.2.3,60.534996189768655,
0.55,1,3,12,5,84.95224010001402,None,84.95224010001402,None,84.95224010001402,None,right,1.6846580000128597,85.03468960011378,None,84.95224010001402,None,86.73756600008346,None,e,001,2022_Jan_23_1047,contrast,2021.2.3,60.534996189768655,
0.3,1,4,13,1,86.94963640009519,None,86.94963640009519,None,86.94963640009519,None,left,0.8700675000436604,87.03239820001181,None,86.94963640009519,None,87.93699290009681,None,e,001,2022_Jan_23_1047,contrast,2021.2.3,60.534996189768655,
0.6,1,5,14,6,88.1478771000402,None,88.1478771000402,None,88.1478771000402,None,right,0.5496806000592187,88.23286640003789,None,88.1478771000402,None,88.81632750004064,None,e,001,2022_Jan_23_1047,contrast,2021.2.3,60.534996189768655,
0.1,1,6,15,0,89.0301026001107,None,89.0301026001107,None,89.0301026001107,None,left,0.7269717999733984,89.11317400005646,None,89.0301026001107,None,89.86929100006819,None,e,001,2022_Jan_23_1047,contrast,2021.2.3,60.534996189768655,
0.5,1,7,16,4,90.08226400008425,None,90.08226400008425,None,90.08226400008425,None,right,0.5869583999738097,90.16360670002177,None,90.08226400008425,None,90.76828380010556,None,e,001,2022_Jan_23_1047,contrast,2021.2.3,60.534996189768655,
0.4,1,8,17,2,90.98009990004357,None,90.98009990004357,None,90.98009990004357,None,right,0.4419977000216022,91.06231730000582,None,90.98009990004357,None,91.53597490000539,None,e,001,2022_Jan_23_1047,contrast,2021.2.3,60.534996189768655,
0.6,2,0,18,6,91.74639820004813,None,91.74639820004813,None,91.74639820004813,None,right,0.715150999953039,91.82743380009197,None,91.74639820004813,None,92.56827830011025,None,e,001,2022_Jan_23_1047,contrast,2021.2.3,60.534996189768655,
0.1,2,1,19,0,92.78096830006689,None,92.78096830006689,None,92.78096830006689,None,left,0.6907897000201046,92.86133540002629,None,92.78096830006689,None,93.58106830006,None,e,001,2022_Jan_23_1047,contrast,2021.2.3,60.534996189768655,
0.45,2,2,20,3,93.80959380010609,None,93.80959380010609,None,93.80959380010609,None,right,0.8176980999996886,93.8865977000678,None,93.80959380010609,None,94.74217310000677,None,e,001,2022_Jan_23_1047,contrast,2021.2.3,60.534996189768655,
0.9,2,3,21,8,94.94328910007607,None,94.94328910007607,None,94.94328910007607,None,right,0.6487834999570623,95.03005410009064,None,94.94328910007607,None,95.6973601001082,None,e,001,2022_Jan_23_1047,contrast,2021.2.3,60.534996189768655,
0.7,2,4,22,7,95.90876400005072,None,95.90876400005072,None,95.90876400005072,None,right,0.647416100022383,95.99180910002906,None,95.90876400005072,None,96.66148940008134,None,e,001,2022_Jan_23_1047,contrast,2021.2.3,60.534996189768655,
0.5,2,5,23,4,96.87436680006795,None,96.87436680006795,None,96.87436680006795,None,left,0.49820680008269846,96.97308920009527,None,96.87436680006795,None,97.49460060009733,None,e,001,2022_Jan_23_1047,contrast,2021.2.3,60.534996189768655,
0.4,2,6,24,2,97.70765280001797,None,97.70765280001797,None,97.70765280001797,None,left,0.5952867000596598,97.78907950001303,None,97.70765280001797,None,98.41371980006807,None,e,001,2022_Jan_23_1047,contrast,2021.2.3,60.534996189768655,
0.55,2,7,25,5,98.62822390010115,None,98.62822390010115,None,98.62822390010115,None,right,0.6829840999562293,98.70798790000845,None,98.62822390010115,None,99.41000070003793,None,e,001,2022_Jan_23_1047,contrast,2021.2.3,60.534996189768655,
0.3,2,8,26,1,99.62218190007843,None,99.62218190007843,None,99.62218190007843,None,left,0.9194719000952318,99.68812890001573,None,99.62218190007843,None,100.62591440009419,None,e,001,2022_Jan_23_1047,contrast,2021.2.3,60.534996189768655,
0.4,3,0,27,2,100.84093800000846,None,100.84093800000846,None,100.84093800000846,None,right,2.451162699959241,100.92409150011372,None,100.84093800000846,None,103.40105390001554,None,e,001,2022_Jan_23_1047,contrast,2021.2.3,60.534996189768655,
0.45,3,1,28,3,103.60242470004596,None,103.60242470004596,None,103.60242470004596,None,right,0.7694002999924123,103.67716310010292,None,103.60242470004596,None,104.47501020005438,None,e,001,2022_Jan_23_1047,contrast,2021.2.3,60.534996189768655,
0.1,3,2,29,0,104.68313390004914,None,104.68313390004914,None,104.68313390004914,None,left,0.44641840003896505,104.768155900063,None,104.68313390004914,None,105.23901170003228,None,e,001,2022_Jan_23_1047,contrast,2021.2.3,60.534996189768655,
0.6,3,3,30,6,105.4590416001156,None,105.4590416001156,None,105.4590416001156,None,right,0.6754662999883294,105.5326839000918,None,105.4590416001156,None,106.2380634000292,None,e,001,2022_Jan_23_1047,contrast,2021.2.3,60.534996189768655,
0.7,3,4,31,7,106.44872480002232,None,106.44872480002232,None,106.44872480002232,None,right,0.4913943000137806,106.53262200008612,None,106.44872480002232,None,107.05245380010456,None,e,001,2022_Jan_23_1047,contrast,2021.2.3,60.534996189768655,
0.9,3,5,32,8,107.26657130010426,None,107.26657130010426,None,107.26657130010426,None,right,0.9697253999765962,107.34893680003006,None,107.26657130010426,None,108.35256680008024,None,e,001,2022_Jan_23_1047,contrast,2021.2.3,60.534996189768655,
0.5,3,6,33,4,108.56464650004636,None,108.56464650004636,None,108.56464650004636,None,right,1.7348420000635087,108.6318907000823,None,108.56464650004636,None,110.39454690006096,None,e,001,2022_Jan_23_1047,contrast,2021.2.3,60.534996189768655,
0.3,3,7,34,1,110.59606490004808,None,110.59606490004808,None,110.59606490004808,None,right,0.7934440000681207,110.66288310009986,None,110.59606490004808,None,111.48406810010783,None,e,001,2022_Jan_23_1047,contrast,2021.2.3,60.534996189768655,
0.55,3,8,35,5,111.69436510000378,None,111.69436510000378,None,111.69436510000378,None,right,2.942156699951738,111.76196370006073,None,111.69436510000378,None,114.73130870005116,None,e,001,2022_Jan_23_1047,contrast,2021.2.3,60.534996189768655,
0.9,4,0,36,8,114.94420250004623,None,114.94420250004623,None,114.94420250004623,None,right,0.5900701000355184,115.02634210011456,None,114.94420250004623,None,115.64715180010535,None,e,001,2022_Jan_23_1047,contrast,2021.2.3,60.534996189768655,
0.7,4,1,37,7,115.8597142000217,None,115.8597142000217,None,115.8597142000217,None,right,0.492682300042361,115.93989880010486,None,115.8597142000217,None,116.46445470000617,None,e,001,2022_Jan_23_1047,contrast,2021.2.3,60.534996189768655,
0.5,4,2,38,4,116.67465280008037,None,116.67465280008037,None,116.67465280008037,None,left,1.0019008999224752,116.74077480006963,None,116.67465280008037,None,117.77959970000666,None,e,001,2022_Jan_23_1047,contrast,2021.2.3,60.534996189768655,
0.1,4,3,39,0,117.99303890008014,None,117.99303890008014,None,117.99303890008014,None,left,0.48159410001244396,118.07701640005689,None,117.99303890008014,None,118.59417310007848,None,e,001,2022_Jan_23_1047,contrast,2021.2.3,60.534996189768655,
0.4,4,4,40,2,118.80578720010817,None,118.80578720010817,None,118.80578720010817,None,left,1.1746199000626802,118.88940120011102,None,118.80578720010817,None,120.09408220008481,None,e,001,2022_Jan_23_1047,contrast,2021.2.3,60.534996189768655,
0.55,4,5,41,5,120.30438030010555,None,120.30438030010555,None,120.30438030010555,None,right,0.3964331999886781,120.38612360006664,None,120.30438030010555,None,120.82057950005401,None,e,001,2022_Jan_23_1047,contrast,2021.2.3,60.534996189768655,
0.45,4,6,42,3,121.03603650000878,None,121.03603650000878,None,121.03603650000878,None,right,0.36686150007881224,121.11990480008535,None,121.03603650000878,None,121.52106570010073,None,e,001,2022_Jan_23_1047,contrast,2021.2.3,60.534996189768655,
0.3,4,7,43,1,121.72497510001995,None,121.72497510001995,None,121.72497510001995,None,left,0.9808157000225037,121.81783850002103,None,121.72497510001995,None,122.83438240003306,None,e,001,2022_Jan_23_1047,contrast,2021.2.3,60.534996189768655,
0.6,4,8,44,6,123.0345092000207,None,123.0345092000207,None,123.0345092000207,None,right,0.7920549999689683,123.1105507001048,None,123.0345092000207,None,123.93897070002276,None,e,001,2022_Jan_23_1047,contrast,2021.2.3,60.534996189768655,
0.4,5,0,45,2,124.14966290001757,None,124.14966290001757,None,124.14966290001757,None,right,1.1432248998899013,124.23284120007884,None,124.14966290001757,None,125.40749790007249,None,e,001,2022_Jan_23_1047,contrast,2021.2.3,60.534996189768655,
0.7,5,1,46,7,125.61676870007068,None,125.61676870007068,None,125.61676870007068,None,right,0.4932379999663681,125.71510680008214,None,125.61676870007068,None,126.23614100005943,None,e,001,2022_Jan_23_1047,contrast,2021.2.3,60.534996189768655,
0.9,5,2,47,8,126.44805360003375,None,126.44805360003375,None,126.44805360003375,None,right,0.41023999999742955,126.51637050008867,None,126.44805360003375,None,126.95284710009582,None,e,001,2022_Jan_23_1047,contrast,2021.2.3,60.534996189768655,
0.3,5,3,48,1,127.16549370007124,None,127.16549370007124,None,127.16549370007124,None,left,0.6078151999972761,127.24832790007349,None,127.16549370007124,None,127.88673600007314,None,e,001,2022_Jan_23_1047,contrast,2021.2.3,60.534996189768655,
0.45,5,4,49,3,128.0961212000111,None,128.0961212000111,None,128.0961212000111,None,left,0.9081131001003087,128.16415910003707,None,128.0961212000111,None,129.1099758000346,None,e,001,2022_Jan_23_1047,contrast,2021.2.3,60.534996189768655,
0.5,5,5,50,4,129.3167310000863,None,129.3167310000863,None,129.3167310000863,None,right,0.4286771999904886,129.39573730004486,None,129.3167310000863,None,129.8526427000761,None,e,001,2022_Jan_23_1047,contrast,2021.2.3,60.534996189768655,
0.6,5,6,51,6,130.0631399000995,None,130.0631399000995,None,130.0631399000995,None,right,0.3815788000356406,130.1451395000331,None,130.0631399000995,None,130.55159310007002,None,e,001,2022_Jan_23_1047,contrast,2021.2.3,60.534996189768655,
0.1,5,7,52,0,130.76255590002984,None,130.76255590002984,None,130.76255590002984,None,left,0.6123631000518799,130.8435552000301,None,130.76255590002984,None,131.48048130003735,None,e,001,2022_Jan_23_1047,contrast,2021.2.3,60.534996189768655,
0.55,5,8,53,5,131.69460140005685,None,131.69460140005685,None,131.69460140005685,None,right,0.8533525998936966,131.76939900009893,None,131.69460140005685,None,132.64723670005333,None,e,001,2022_Jan_23_1047,contrast,2021.2.3,60.534996189768655,
0.6,6,0,54,6,132.86296610010322,None,132.86296610010322,None,132.86296610010322,None,right,0.7047377000562847,132.94183930009604,None,132.86296610010322,None,133.6802717000246,None,e,001,2022_Jan_23_1047,contrast,2021.2.3,60.534996189768655,
0.1,6,1,55,0,133.89345170010347,None,133.89345170010347,None,133.89345170010347,None,left,0.6146200998919085,133.97588200005703,None,133.89345170010347,None,134.6092247000197,None,e,001,2022_Jan_23_1047,contrast,2021.2.3,60.534996189768655,
0.7,6,2,56,7,134.81040010007564,None,134.81040010007564,None,134.81040010007564,None,right,0.6450034999288619,134.89028850011528,None,134.81040010007564,None,135.57357640005648,None,e,001,2022_Jan_23_1047,contrast,2021.2.3,60.534996189768655,
0.5,6,3,57,4,135.77289180003572,None,135.77289180003572,None,135.77289180003572,None,right,1.0066323999781162,135.85677340009715,None,135.77289180003572,None,136.88927790010348,None,e,001,2022_Jan_23_1047,contrast,2021.2.3,60.534996189768655,
0.3,6,4,58,1,137.10546450002585,None,137.10546450002585,None,137.10546450002585,None,right,1.676396599970758,137.18797100009397,None,137.10546450002585,None,138.8930775000481,None,e,001,2022_Jan_23_1047,contrast,2021.2.3,60.534996189768655,
0.45,6,5,59,3,139.10450650006533,None,139.10450650006533,None,139.10450650006533,None,left,0.732700299937278,139.18605730007403,None,139.10450650006533,None,139.9528446000768,None,e,001,2022_Jan_23_1047,contrast,2021.2.3,60.534996189768655,
0.4,6,6,60,2,140.15649390011095,None,140.15649390011095,None,140.15649390011095,None,right,1.984048999962397,140.23845790000632,None,140.15649390011095,None,142.25647320004646,None,e,001,2022_Jan_23_1047,contrast,2021.2.3,60.534996189768655,
0.9,6,7,61,8,142.4689055000199,None,142.4689055000199,None,142.4689055000199,None,left,1.0177555999252945,142.55015710007865,None,142.4689055000199,None,143.59077400004026,None,e,001,2022_Jan_23_1047,contrast,2021.2.3,60.534996189768655,
0.55,6,8,62,5,143.80096580006648,None,143.80096580006648,None,143.80096580006648,None,right,2.3145494000054896,143.8760600000387,None,143.80096580006648,None,146.21362600009888,None,e,001,2022_Jan_23_1047,contrast,2021.2.3,60.534996189768655,
0.4,7,0,63,2,146.4140747000929,None,146.4140747000929,None,146.4140747000929,None,left,0.7662841000128537,146.49695730011445,None,146.4140747000929,None,147.28712940006517,None,e,001,2022_Jan_23_1047,contrast,2021.2.3,60.534996189768655,
0.9,7,1,64,8,147.5016737000551,None,147.5016737000551,None,147.5016737000551,None,right,0.5437219999730587,147.58284170005936,None,147.5016737000551,None,148.1621032000985,None,e,001,2022_Jan_23_1047,contrast,2021.2.3,60.534996189768655,
0.6,7,2,65,6,148.36296370008495,None,148.36296370008495,None,148.36296370008495,None,right,0.8476931999903172,148.44689070002642,None,148.36296370008495,None,149.31246440007817,None,e,001,2022_Jan_23_1047,contrast,2021.2.3,60.534996189768655,
0.7,7,3,66,7,149.527851400082,None,149.527851400082,None,149.527851400082,None,right,0.7081281999126077,149.6121571001131,None,149.527851400082,None,150.35135430004448,None,e,001,2022_Jan_23_1047,contrast,2021.2.3,60.534996189768655,
0.3,7,4,67,1,150.5630842000246,None,150.5630842000246,None,150.5630842000246,None,left,1.452384400065057,150.642791600083,None,150.5630842000246,None,152.1139082000591,None,e,001,2022_Jan_23_1047,contrast,2021.2.3,60.534996189768655,
0.5,7,5,68,4,152.3271367000416,None,152.3271367000416,None,152.3271367000416,None,right,0.7748412000946701,152.40786790009588,None,152.3271367000416,None,153.23162299999967,None,e,001,2022_Jan_23_1047,contrast,2021.2.3,60.534996189768655,
0.1,7,6,69,0,153.45849480002653,None,153.45849480002653,None,153.45849480002653,None,left,0.7786872000433505,153.54050010000356,None,153.45849480002653,None,154.34764480008744,None,e,001,2022_Jan_23_1047,contrast,2021.2.3,60.534996189768655,
0.45,7,7,70,3,154.55943450005725,None,154.55943450005725,None,154.55943450005725,None,left,2.942664800095372,154.6398160000099,None,154.55943450005725,None,157.62255680002272,None,e,001,2022_Jan_23_1047,contrast,2021.2.3,60.534996189768655,
0.55,7,8,71,5,157.8429586000275,None,157.8429586000275,None,157.8429586000275,None,right,0.6838288999861106,157.92301090003457,None,157.8429586000275,None,158.64942750008777,None,e,001,2022_Jan_23_1047,contrast,2021.2.3,60.534996189768655,
0.55,8,0,72,5,158.85824010008946,None,158.85824010008946,None,158.85824010008946,None,right,0.5658793000038713,158.93750140001066,None,158.85824010008946,None,159.52307320002,None,e,001,2022_Jan_23_1047,contrast,2021.2.3,60.534996189768655,
0.5,8,1,73,4,159.74039880000055,None,159.74039880000055,None,159.74039880000055,None,right,0.5467677999986336,159.82035350007936,None,159.74039880000055,None,160.39012470003217,None,e,001,2022_Jan_23_1047,contrast,2021.2.3,60.534996189768655,
0.7,8,2,74,7,160.60146880010143,None,160.60146880010143,None,160.60146880010143,None,right,0.7538102000253275,160.68503940000664,None,160.60146880010143,None,161.46797880006488,None,e,001,2022_Jan_23_1047,contrast,2021.2.3,60.534996189768655,
0.6,8,3,75,6,161.66840220009908,None,161.66840220009908,None,161.66840220009908,None,right,0.6380735000129789,161.760377000086,None,161.66840220009908,None,162.4350667000981,None,e,001,2022_Jan_23_1047,contrast,2021.2.3,60.534996189768655,
0.9,8,4,76,8,162.6497019000817,None,162.6497019000817,None,162.6497019000817,None,right,0.43586550001055,162.73221960000228,None,162.6497019000817,None,163.18772880011238,None,e,001,2022_Jan_23_1047,contrast,2021.2.3,60.534996189768655,
0.1,8,5,77,0,163.40252920007333,None,163.40252920007333,None,163.40252920007333,None,left,0.6919221000280231,163.48301190009806,None,163.40252920007333,None,164.2220599000575,None,e,001,2022_Jan_23_1047,contrast,2021.2.3,60.534996189768655,
0.45,8,6,78,3,164.43450520001352,None,164.43450520001352,None,164.43450520001352,None,left,1.0026929999003187,164.51587380003184,None,164.43450520001352,None,165.5366970000323,None,e,001,2022_Jan_23_1047,contrast,2021.2.3,60.534996189768655,
0.4,8,7,79,2,165.75307920004707,None,165.75307920004707,None,165.75307920004707,None,left,0.9007604999933392,165.83370970003307,None,165.75307920004707,None,166.7672920000041,None,e,001,2022_Jan_23_1047,contrast,2021.2.3,60.534996189768655,
0.3,8,8,80,1,166.97943550010677,None,166.97943550010677,None,166.97943550010677,None,left,0.5674362999852747,167.06329750001896,None,166.97943550010677,None,167.66397960006725,None,e,001,2022_Jan_23_1047,contrast,2021.2.3,60.534996189768655,
0.1,9,0,81,0,167.88821020000614,None,167.88821020000614,None,167.88821020000614,None,left,0.9298535999841988,167.96467130002566,None,167.88821020000614,None,168.9297421000665,None,e,001,2022_Jan_23_1047,contrast,2021.2.3,60.534996189768655,
0.4,9,1,82,2,169.14551310008392,None,169.14551310008392,None,169.14551310008392,None,right,0.4964963999809697,169.23030210006982,None,169.14551310008392,None,169.7598738000961,None,e,001,2022_Jan_23_1047,contrast,2021.2.3,60.534996189768655,
0.3,9,2,83,1,169.96094740007538,None,169.96094740007538,None,169.96094740007538,None,right,0.4988718000240624,170.04383440001402,None,169.96094740007538,None,170.56414600007702,None,e,001,2022_Jan_23_1047,contrast,2021.2.3,60.534996189768655,
0.6,9,3,84,6,170.78374990005977,None,170.78374990005977,None,170.78374990005977,None,right,0.6905826999573037,170.86145640001632,None,170.78374990005977,None,171.58214140008204,None,e,001,2022_Jan_23_1047,contrast,2021.2.3,60.534996189768655,
0.55,9,4,85,5,171.79192760004662,None,171.79192760004662,None,171.79192760004662,None,right,0.4433333999477327,171.87702700006776,None,171.79192760004662,None,172.35059900011402,None,e,001,2022_Jan_23_1047,contrast,2021.2.3,60.534996189768655,
0.5,9,5,86,4,172.56189840007573,None,172.56189840007573,None,172.56189840007573,None,right,0.46068579994607717,172.64241600001696,None,172.56189840007573,None,173.1291466000257,None,e,001,2022_Jan_23_1047,contrast,2021.2.3,60.534996189768655,
0.7,9,6,87,7,173.346718100016,None,173.346718100016,None,173.346718100016,None,right,0.41367499995976686,173.42511720000766,None,173.346718100016,None,173.86243530001957,None,e,001,2022_Jan_23_1047,contrast,2021.2.3,60.534996189768655,
0.9,9,7,88,8,174.07436120009515,None,174.07436120009515,None,174.07436120009515,None,right,0.3697806999552995,174.15692570002284,None,174.07436120009515,None,174.54457980010193,None,e,001,2022_Jan_23_1047,contrast,2021.2.3,60.534996189768655,
0.45,9,8,89,3,174.75597320008092,None,174.75597320008092,None,174.75597320008092,None,right,0.857929400051944,174.82278300006874,None,174.75597320008092,None,175.71057810005732,None,e,001,2022_Jan_23_1047,contrast,2021.2.3,60.534996189768655,
0.3,10,0,90,1,175.92249180004,None,175.92249180004,None,175.92249180004,None,left,0.47448590002022684,176.0058180000633,None,175.92249180004,None,176.51173160003964,None,e,001,2022_Jan_23_1047,contrast,2021.2.3,60.534996189768655,
0.4,10,1,91,2,176.72354400006589,None,176.72354400006589,None,176.72354400006589,None,left,0.37876460002735257,176.8039732000325,None,176.72354400006589,None,177.2087914000731,None,e,001,2022_Jan_23_1047,contrast,2021.2.3,60.534996189768655,
0.55,10,2,92,5,177.42052620009053,None,177.42052620009053,None,177.42052620009053,None,right,0.4614968999521807,177.50514340004884,None,177.42052620009053,None,178.0100404000841,None,e,001,2022_Jan_23_1047,contrast,2021.2.3,60.534996189768655,
0.9,10,3,93,8,178.22139070008416,None,178.22139070008416,None,178.22139070008416,None,right,0.5278390999883413,178.30274670000654,None,178.22139070008416,None,178.87118210003246,None,e,001,2022_Jan_23_1047,contrast,2021.2.3,60.534996189768655,
0.7,10,4,94,7,179.09106620005332,None,179.09106620005332,None,179.09106620005332,None,right,0.6065273000858724,179.1695444000652,None,179.09106620005332,None,179.81078590010293,None,e,001,2022_Jan_23_1047,contrast,2021.2.3,60.534996189768655,
0.1,10,5,95,0,180.02445100003388,None,180.02445100003388,None,180.02445100003388,None,left,0.6721374000189826,180.11100930010434,None,180.02445100003388,None,180.80781460006256,None,e,001,2022_Jan_23_1047,contrast,2021.2.3,60.534996189768655,
0.45,10,6,96,3,181.01731560006738,None,181.01731560006738,None,181.01731560006738,None,right,0.9304439999395981,181.08440620009787,None,181.01731560006738,None,182.03932170011103,None,e,001,2022_Jan_23_1047,contrast,2021.2.3,60.534996189768655,
0.5,10,7,97,4,182.25599070009775,None,182.25599070009775,None,182.25599070009775,None,right,0.6973467000061646,182.34232920000795,None,182.25599070009775,None,183.07957220007665,None,e,001,2022_Jan_23_1047,contrast,2021.2.3,60.534996189768655,
0.6,10,8,98,6,183.29803760000505,None,183.29803760000505,None,183.29803760000505,None,right,0.3293028000043705,183.38141970010474,None,183.29803760000505,None,183.74945820006542,None,e,001,2022_Jan_23_1047,contrast,2021.2.3,60.534996189768655,
0.7,11,0,99,7,183.96418310003355,None,183.96418310003355,None,183.96418310003355,None,right,0.3508949999231845,184.04767910006922,None,183.96418310003355,None,184.43558140005916,None,e,001,2022_Jan_23_1047,contrast,2021.2.3,60.534996189768655,
0.3,11,1,100,1,184.64849380007945,None,184.64849380007945,None,184.64849380007945,None,left,0.9314758999971673,184.7311373000266,None,184.64849380007945,None,185.6955319000408,None,e,001,2022_Jan_23_1047,contrast,2021.2.3,60.534996189768655,
0.45,11,2,101,3,185.9003029000014,None,185.9003029000014,None,185.9003029000014,None,right,1.1830332000972703,185.98357280006167,None,185.9003029000014,None,187.200768000097,None,e,001,2022_Jan_23_1047,contrast,2021.2.3,60.534996189768655,
0.1,11,3,102,0,187.4182345001027,None,187.4182345001027,None,187.4182345001027,None,left,0.7716713999398053,187.5005829000147,None,187.4182345001027,None,188.299181300099,None,e,001,2022_Jan_23_1047,contrast,2021.2.3,60.534996189768655,
0.4,11,4,103,2,188.51101020001806,None,188.51101020001806,None,188.51101020001806,None,right,0.621477400069125,188.59318300010636,None,188.51101020001806,None,189.24905480002053,None,e,001,2022_Jan_23_1047,contrast,2021.2.3,60.534996189768655,
0.5,11,5,104,4,189.45969390007667,None,189.45969390007667,None,189.45969390007667,None,right,2.119112499989569,189.52733760001138,None,189.45969390007667,None,191.68144100008067,None,e,001,2022_Jan_23_1047,contrast,2021.2.3,60.534996189768655,
0.6,11,6,105,6,191.89145650004502,None,191.89145650004502,None,191.89145650004502,None,right,0.8740881000412628,191.95810700010043,None,191.89145650004502,None,192.8616140000522,None,e,001,2022_Jan_23_1047,contrast,2021.2.3,60.534996189768655,
0.9,11,7,106,8,193.07330980000552,None,193.07330980000552,None,193.07330980000552,None,right,0.9300564000150189,193.1493237001123,None,193.07330980000552,None,194.1056341000367,None,e,001,2022_Jan_23_1047,contrast,2021.2.3,60.534996189768655,
0.55,11,8,107,5,194.30758830008563,None,194.30758830008563,None,194.30758830008563,None,left,0.9068990999367088,194.38898150005843,None,194.30758830008563,None,195.32738130004145,None,e,001,2022_Jan_23_1047,contrast,2021.2.3,60.534996189768655,
0.55,12,0,108,5,195.5400646000635,None,195.5400646000635,None,195.5400646000635,None,left,0.5064632000867277,195.62095800007228,None,195.5400646000635,None,196.15370730008,None,e,001,2022_Jan_23_1047,contrast,2021.2.3,60.534996189768655,
0.6,12,1,109,6,196.355774100055,None,196.355774100055,None,196.355774100055,None,left,0.8664247998967767,196.42988200008404,None,196.355774100055,None,197.32638930005487,None,e,001,2022_Jan_23_1047,contrast,2021.2.3,60.534996189768655,
0.3,12,2,110,1,197.5394762000069,None,197.5394762000069,None,197.5394762000069,None,left,0.7318481999682263,197.61922790005337,None,197.5394762000069,None,198.3741312000202,None,e,001,2022_Jan_23_1047,contrast,2021.2.3,60.534996189768655,
0.4,12,3,111,2,198.5857952000806,None,198.5857952000806,None,198.5857952000806,None,left,0.4647771999007091,198.67043460009154,None,198.5857952000806,None,199.15746460005175,None,e,001,2022_Jan_23_1047,contrast,2021.2.3,60.534996189768655,
0.5,12,4,112,4,199.36794010002632,None,199.36794010002632,None,199.36794010002632,None,left,0.468174499925226,199.4511429000413,None,199.36794010002632,None,199.9379885001108,None,e,001,2022_Jan_23_1047,contrast,2021.2.3,60.534996189768655,
0.1,12,5,113,0,200.15117810002994,None,200.15117810002994,None,200.15117810002994,None,left,0.5147292000474408,200.2201249001082,None,200.15117810002994,None,200.7643148000352,None,e,001,2022_Jan_23_1047,contrast,2021.2.3,60.534996189768655,
0.9,12,6,114,8,200.97038530011196,None,200.97038530011196,None,200.97038530011196,None,right,0.5484500000020489,201.0509262001142,None,200.97038530011196,None,201.62670880008955,None,e,001,2022_Jan_23_1047,contrast,2021.2.3,60.534996189768655,
0.45,12,7,115,3,201.83934280008543,None,201.83934280008543,None,201.83934280008543,None,right,0.4763144999742508,201.92229640006553,None,201.83934280008543,None,202.43295050004963,None,e,001,2022_Jan_23_1047,contrast,2021.2.3,60.534996189768655,
0.7,12,8,116,7,202.64918920001946,None,202.64918920001946,None,202.64918920001946,None,right,0.3932481000665575,202.7413107000757,None,202.64918920001946,None,203.17086180008482,None,e,001,2022_Jan_23_1047,contrast,2021.2.3,60.534996189768655,
0.4,13,0,117,2,203.38200560002588,None,203.38200560002588,None,203.38200560002588,None,right,0.4222012999234721,203.46541060006712,None,203.38200560002588,None,203.920205200091,None,e,001,2022_Jan_23_1047,contrast,2021.2.3,60.534996189768655,
0.55,13,1,118,5,204.13220060011372,None,204.13220060011372,None,204.13220060011372,None,right,0.5366201000288129,204.21387170010712,None,204.13220060011372,None,204.78352780011483,None,e,001,2022_Jan_23_1047,contrast,2021.2.3,60.534996189768655,
0.3,13,2,119,1,204.9960661000805,None,204.9960661000805,None,204.9960661000805,None,left,0.8564768000505865,205.07934840000235,None,204.9960661000805,None,205.96652150002774,None,e,001,2022_Jan_23_1047,contrast,2021.2.3,60.534996189768655,
0.1,13,3,120,0,206.1784749000799,None,206.1784749000799,None,206.1784749000799,None,left,0.6329641999909654,206.26165500003844,None,206.1784749000799,None,206.9277002000017,None,e,001,2022_Jan_23_1047,contrast,2021.2.3,60.534996189768655,
0.45,13,4,121,3,207.1313523000572,None,207.1313523000572,None,207.1313523000572,None,right,0.6929854999762028,207.21108350006398,None,207.1313523000572,None,207.9325126000913,None,e,001,2022_Jan_23_1047,contrast,2021.2.3,60.534996189768655,
0.5,13,5,122,4,208.1454166000476,None,208.1454166000476,None,208.1454166000476,None,right,2.328837899956852,208.21418290003203,None,208.1454166000476,None,210.56416639999952,None,e,001,2022_Jan_23_1047,contrast,2021.2.3,60.534996189768655,
0.6,13,6,123,6,210.77439420006704,None,210.77439420006704,None,210.77439420006704,None,right,0.9493214000249282,210.8578056000406,None,210.77439420006704,None,211.83030940010212,None,e,001,2022_Jan_23_1047,contrast,2021.2.3,60.534996189768655,
0.7,13,7,124,7,212.04189100000076,None,212.04189100000076,None,212.04189100000076,None,right,1.6184507000725716,212.12412520009093,None,212.04189100000076,None,213.77729630004615,None,e,001,2022_Jan_23_1047,contrast,2021.2.3,60.534996189768655,
0.9,13,8,125,8,213.98773010005243,None,213.98773010005243,None,213.98773010005243,None,right,1.2401190999662504,214.07169430004433,None,213.98773010005243,None,215.35324000008404,None,e,001,2022_Jan_23_1047,contrast,2021.2.3,60.534996189768655,
0.9,14,0,126,8,215.55796370003372,None,215.55796370003372,None,215.55796370003372,None,right,1.161820000037551,215.63715850003064,None,215.55796370003372,None,216.82112060009968,None,e,001,2022_Jan_23_1047,contrast,2021.2.3,60.534996189768655,
0.3,14,1,127,1,217.03686500003096,None,217.03686500003096,None,217.03686500003096,None,right,3.200702799949795,217.11885700002313,None,217.03686500003096,None,220.3397597000003,None,e,001,2022_Jan_23_1047,contrast,2021.2.3,60.534996189768655,
0.1,14,2,128,0,220.54935920005664,None,220.54935920005664,None,220.54935920005664,None,left,1.252571600023657,220.61883010005113,None,220.54935920005664,None,221.90463700005785,None,e,001,2022_Jan_23_1047,contrast,2021.2.3,60.534996189768655,
0.5,14,3,129,4,222.11603600007948,None,222.11603600007948,None,222.11603600007948,None,right,0.5177171999821439,222.18493250000756,None,222.11603600007948,None,222.7239564000629,None,e,001,2022_Jan_23_1047,contrast,2021.2.3,60.534996189768655,
0.45,14,4,130,3,222.93213090009522,None,222.93213090009522,None,222.93213090009522,None,right,0.29612930002622306,223.01513580000028,None,222.93213090009522,None,223.33326260000467,None,e,001,2022_Jan_23_1047,contrast,2021.2.3,60.534996189768655,
0.4,14,5,131,2,223.54725180007517,None,223.54725180007517,None,223.54725180007517,None,right,0.224314899998717,223.63181630009785,None,223.54725180007517,None,223.89609560009558,None,e,001,2022_Jan_23_1047,contrast,2021.2.3,60.534996189768655,
0.55,14,6,132,5,224.0971417000983,None,224.0971417000983,None,224.0971417000983,None,right,0.5400655000703409,224.17936010006815,None,224.0971417000983,None,224.7445818000706,None,e,001,2022_Jan_23_1047,contrast,2021.2.3,60.534996189768655,
0.6,14,7,133,6,224.94579620007426,None,224.94579620007426,None,224.94579620007426,None,right,0.5828297000844032,225.01566580007784,None,224.94579620007426,None,225.61636280000675,None,e,001,2022_Jan_23_1047,contrast,2021.2.3,60.534996189768655,
0.7,14,8,134,7,225.82818290009163,None,225.82818290009163,None,225.82818290009163,None,right,0.36153059999924153,225.9109102000948,None,225.82818290009163,None,226.30035630008206,None,e,001,2022_Jan_23_1047,contrast,2021.2.3,60.534996189768655,
0.55,15,0,135,5,226.51075820007827,None,226.51075820007827,None,226.51075820007827,None,right,0.3326658000005409,226.59429760009516,None,226.51075820007827,None,226.95052310009487,None,e,001,2022_Jan_23_1047,contrast,2021.2.3,60.534996189768655,
0.5,15,1,136,4,227.1634310000809,None,227.1634310000809,None,227.1634310000809,None,right,0.3721404999960214,227.24247890000697,None,227.1634310000809,None,227.64937830006238,None,e,001,2022_Jan_23_1047,contrast,2021.2.3,60.534996189768655,
0.3,15,2,137,1,227.8609147000825,None,227.8609147000825,None,227.8609147000825,None,right,0.9995813999557868,227.94365420006216,None,227.8609147000825,None,228.96480400010478,None,e,001,2022_Jan_23_1047,contrast,2021.2.3,60.534996189768655,
0.7,15,3,138,7,229.1948202000931,None,229.1948202000931,None,229.1948202000931,None,left,0.2274105999385938,229.25941440009046,None,229.1948202000931,None,229.5154312000377,None,e,001,2022_Jan_23_1047,contrast,2021.2.3,60.534996189768655,
0.45,15,4,139,3,229.7262184000574,None,229.7262184000574,None,229.7262184000574,None,right,1.1193164000287652,229.80726790009066,None,229.7262184000574,None,230.94760440010577,None,e,001,2022_Jan_23_1047,contrast,2021.2.3,60.534996189768655,
0.6,15,5,140,6,231.15766170003917,None,231.15766170003917,None,231.15766170003917,None,right,0.31063630001153797,231.2413159001153,None,231.15766170003917,None,231.57808330003172,None,e,001,2022_Jan_23_1047,contrast,2021.2.3,60.534996189768655,
0.4,15,6,141,2,231.7905673000496,None,231.7905673000496,None,231.7905673000496,None,right,0.3014379000524059,231.87405780004337,None,231.7905673000496,None,232.19667210010812,None,e,001,2022_Jan_23_1047,contrast,2021.2.3,60.534996189768655,
0.9,15,7,142,8,232.40678410010878,None,232.40678410010878,None,232.40678410010878,None,right,0.628571700071916,232.48994680005126,None,232.40678410010878,None,233.14425900008064,None,e,001,2022_Jan_23_1047,contrast,2021.2.3,60.534996189768655,
0.1,15,8,143,0,233.3550843000412,None,233.3550843000412,None,233.3550843000412,None,left,0.6092896999325603,233.42298280005343,None,233.3550843000412,None,234.05964330001734,None,e,001,2022_Jan_23_1047,contrast,2021.2.3,60.534996189768655,
0.7,16,0,144,7,234.27222690009512,None,234.27222690009512,None,234.27222690009512,None,right,0.524318200070411,234.35566760005895,None,234.27222690009512,None,234.9092546000611,None,e,001,2022_Jan_23_1047,contrast,2021.2.3,60.534996189768655,
0.5,16,1,145,4,235.1212164000608,None,235.1212164000608,None,235.1212164000608,None,left,0.986213400028646,235.20425070007332,None,235.1212164000608,None,236.22516510006972,None,e,001,2022_Jan_23_1047,contrast,2021.2.3,60.534996189768655,
0.55,16,2,146,5,236.43508830002975,None,236.43508830002975,None,236.43508830002975,None,right,0.679147299961187,236.50353660003748,None,236.43508830002975,None,237.21781480009668,None,e,001,2022_Jan_23_1047,contrast,2021.2.3,60.534996189768655,
0.45,16,3,147,3,237.41976540000178,None,237.41976540000178,None,237.41976540000178,None,right,0.35292580001987517,237.50162810005713,None,237.41976540000178,None,237.87335730006453,None,e,001,2022_Jan_23_1047,contrast,2021.2.3,60.534996189768655,
0.4,16,4,148,2,238.0838289000094,None,238.0838289000094,None,238.0838289000094,None,right,0.6941663000034168,238.1523383000167,None,238.0838289000094,None,238.8721240001032,None,e,001,2022_Jan_23_1047,contrast,2021.2.3,60.534996189768655,
0.3,16,5,149,1,239.08354910009075,None,239.08354910009075,None,239.08354910009075,None,right,0.8633140999590978,239.1674014000455,None,239.08354910009075,None,240.06454380007926,None,e,001,2022_Jan_23_1047,contrast,2021.2.3,60.534996189768655,
0.1,16,6,150,0,240.2727338001132,None,240.2727338001132,None,240.2727338001132,None,left,0.9453410999849439,240.34927430003881,None,240.2727338001132,None,241.32015280006453,None,e,001,2022_Jan_23_1047,contrast,2021.2.3,60.534996189768655,
0.9,16,7,151,8,241.53207060007844,None,241.53207060007844,None,241.53207060007844,None,right,0.5439064000966027,241.61505420005415,None,241.53207060007844,None,242.1872977000894,None,e,001,2022_Jan_23_1047,contrast,2021.2.3,60.534996189768655,
0.6,16,8,152,6,242.3992411000654,None,242.3992411000654,None,242.3992411000654,None,right,0.8153644000412896,242.47975540009793,None,242.3992411000654,None,243.3173742000945,None,e,001,2022_Jan_23_1047,contrast,2021.2.3,60.534996189768655,
0.3,17,0,153,1,243.52947580011096,None,243.52947580011096,None,243.52947580011096,None,left,0.6745712999254465,243.61384460004047,None,243.52947580011096,None,244.3149033000227,None,e,001,2022_Jan_23_1047,contrast,2021.2.3,60.534996189768655,
0.7,17,1,154,7,244.53013030008879,None,244.53013030008879,None,244.53013030008879,None,right,0.5393803999759257,244.62711080000736,None,244.53013030008879,None,245.20045670005493,None,e,001,2022_Jan_23_1047,contrast,2021.2.3,60.534996189768655,
0.5,17,2,155,4,245.411663100007,None,245.411663100007,None,245.411663100007,None,right,0.281693400000222,245.49340570007917,None,245.411663100007,None,245.80027550004888,None,e,001,2022_Jan_23_1047,contrast,2021.2.3,60.534996189768655,
0.6,17,3,156,6,246.01080440008081,None,246.01080440008081,None,246.01080440008081,None,right,0.2962026000022888,246.10227130004205,None,246.01080440008081,None,246.42820180009585,None,e,001,2022_Jan_23_1047,contrast,2021.2.3,60.534996189768655,
0.55,17,4,157,5,246.63126940000802,None,246.63126940000802,None,246.63126940000802,None,right,1.0155761999776587,246.7110979000572,None,246.63126940000802,None,247.75808820000384,None,e,001,2022_Jan_23_1047,contrast,2021.2.3,60.534996189768655,
0.4,17,5,158,2,247.96004810009617,None,247.96004810009617,None,247.96004810009617,None,left,1.5429179000202566,248.04120060009882,None,247.96004810009617,None,249.614267500001,None,e,001,2022_Jan_23_1047,contrast,2021.2.3,60.534996189768655,
0.1,17,6,159,0,249.82367790001445,None,249.82367790001445,None,249.82367790001445,None,left,1.0194699000567198,249.9072891001124,None,249.82367790001445,None,250.96308840007987,None,e,001,2022_Jan_23_1047,contrast,2021.2.3,60.534996189768655,
0.45,17,7,160,3,251.1737624000525,None,251.1737624000525,None,251.1737624000525,None,right,1.0147754999343306,251.2562203000998,None,251.1737624000525,None,252.29478380002547,None,e,001,2022_Jan_23_1047,contrast,2021.2.3,60.534996189768655,
0.9,17,8,161,8,252.5053399000317,None,252.5053399000317,None,252.5053399000317,None,right,0.5944051999831572,252.57211620011367,None,252.5053399000317,None,253.19319600006565,None,e,001,2022_Jan_23_1047,contrast,2021.2.3,60.534996189768655,
0.7,18,0,162,7,253.41971850011032,None,253.41971850011032,None,253.41971850011032,None,right,0.4858184000477195,253.49661260005087,None,253.41971850011032,None,254.00881680008024,None,e,001,2022_Jan_23_1047,contrast,2021.2.3,60.534996189768655,
0.3,18,1,163,1,254.23699760006275,None,254.23699760006275,None,254.23699760006275,None,left,1.5970039999810979,254.30570550006814,None,254.23699760006275,None,255.93390490009915,None,e,001,2022_Jan_23_1047,contrast,2021.2.3,60.534996189768655,
0.1,18,2,164,0,256.13579510001,None,256.13579510001,None,256.13579510001,None,left,0.8521664999425411,256.21848000003956,None,256.13579510001,None,257.1022673000116,None,e,001,2022_Jan_23_1047,contrast,2021.2.3,60.534996189768655,
0.4,18,3,165,2,257.31774350011256,None,257.31774350011256,None,257.31774350011256,None,left,0.9343415999319404,257.4004838000983,None,257.31774350011256,None,258.3561389000388,None,e,001,2022_Jan_23_1047,contrast,2021.2.3,60.534996189768655,
0.45,18,4,166,3,258.56714840000495,None,258.56714840000495,None,258.56714840000495,None,right,0.5821887999773026,258.6484857000178,None,258.56714840000495,None,259.2645801000763,None,e,001,2022_Jan_23_1047,contrast,2021.2.3,60.534996189768655,
0.5,18,5,167,4,259.4661084000254,None,259.4661084000254,None,259.4661084000254,None,right,0.38540330005344003,259.54925230005756,None,259.4661084000254,None,259.97388380009215,None,e,001,2022_Jan_23_1047,contrast,2021.2.3,60.534996189768655,
0.9,18,6,168,8,260.182374700089,None,260.182374700089,None,260.182374700089,None,right,0.6126105000730604,260.2673533000052,None,260.182374700089,None,260.90352400008123,None,e,001,2022_Jan_23_1047,contrast,2021.2.3,60.534996189768655,
0.6,18,7,169,6,261.1167118001031,None,261.1167118001031,None,261.1167118001031,None,right,0.8658808000618592,261.1971808000235,None,261.1167118001031,None,262.09405800001696,None,e,001,2022_Jan_23_1047,contrast,2021.2.3,60.534996189768655,
0.55,18,8,170,5,262.29751630011015,None,262.29751630011015,None,262.29751630011015,None,right,1.4506858000531793,262.38923060009256,None,262.29751630011015,None,263.86855480005033,None,e,001,2022_Jan_23_1047,contrast,2021.2.3,60.534996189768655,
0.4,19,0,171,2,264.0789963999996,None,264.0789963999996,None,264.0789963999996,None,left,0.6444855999434367,264.1540134000825,None,264.0789963999996,None,264.8318667000858,None,e,001,2022_Jan_23_1047,contrast,2021.2.3,60.534996189768655,
0.3,19,1,172,1,265.0445235000225,None,265.0445235000225,None,265.0445235000225,None,right,1.2562630999600515,265.11181290005334,None,265.0445235000225,None,266.3989609000273,None,e,001,2022_Jan_23_1047,contrast,2021.2.3,60.534996189768655,
0.45,19,2,173,3,266.6113933000015,None,266.6113933000015,None,266.6113933000015,None,right,0.795352999935858,266.69224830006715,None,266.6113933000015,None,267.5137932000216,None,e,001,2022_Jan_23_1047,contrast,2021.2.3,60.534996189768655,
0.7,19,3,174,7,267.72493290004786,None,267.72493290004786,None,267.72493290004786,None,right,0.44604640000034124,267.80851830006577,None,267.72493290004786,None,268.2797766000731,None,e,001,2022_Jan_23_1047,contrast,2021.2.3,60.534996189768655,
0.9,19,4,175,8,268.4918846000219,None,268.4918846000219,None,268.4918846000219,None,right,0.21066420001443475,268.590128300013,None,268.4918846000219,None,268.8286815000465,None,e,001,2022_Jan_23_1047,contrast,2021.2.3,60.534996189768655,
0.6,19,5,176,6,269.04140830005053,None,269.04140830005053,None,269.04140830005053,None,right,0.3641119999811053,269.12243080011103,None,269.04140830005053,None,269.51308370009065,None,e,001,2022_Jan_23_1047,contrast,2021.2.3,60.534996189768655,
0.55,19,6,177,5,269.72402350010816,None,269.72402350010816,None,269.72402350010816,None,right,0.4639475999865681,269.7905153000029,None,269.72402350010816,None,270.29031410010066,None,e,001,2022_Jan_23_1047,contrast,2021.2.3,60.534996189768655,
0.5,19,7,178,4,270.493626600015,None,270.493626600015,None,270.493626600015,None,right,0.4014101999346167,270.5734752001008,None,270.493626600015,None,271.0122838000534,None,e,001,2022_Jan_23_1047,contrast,2021.2.3,60.534996189768655,
0.1,19,8,179,0,271.2256624000147,None,271.2256624000147,None,271.2256624000147,None,left,0.6130538999568671,271.3055133000016,None,271.2256624000147,None,271.94447020010557,None,e,001,2022_Jan_23_1047,contrast,2021.2.3,60.534996189768655,
0.6,20,0,180,6,272.1565012000501,None,272.1565012000501,None,272.1565012000501,None,right,0.5454265000298619,272.2373555001104,None,272.1565012000501,None,272.8111350000836,None,e,001,2022_Jan_23_1047,contrast,2021.2.3,60.534996189768655,
0.3,20,1,181,1,273.021911000018,None,273.021911000018,None,273.021911000018,None,right,0.9275052000302821,273.10396830004174,None,273.021911000018,None,274.05926430004183,None,e,001,2022_Jan_23_1047,contrast,2021.2.3,60.534996189768655,
0.9,20,2,182,8,274.2706867000088,None,274.2706867000088,None,274.2706867000088,None,left,0.3972558999666944,274.35344640002586,None,274.2706867000088,None,274.78451060003135,None,e,001,2022_Jan_23_1047,contrast,2021.2.3,60.534996189768655,
0.7,20,3,183,7,274.98637490009423,None,274.98637490009423,None,274.98637490009423,None,right,0.7711774000199512,275.06747050001286,None,274.98637490009423,None,275.86738630000036,None,e,001,2022_Jan_23_1047,contrast,2021.2.3,60.534996189768655,
0.4,20,4,184,2,276.06850440008566,None,276.06850440008566,None,276.06850440008566,None,right,0.2539360000519082,276.1606341000879,None,276.06850440008566,None,276.4530943001155,None,e,001,2022_Jan_23_1047,contrast,2021.2.3,60.534996189768655,
0.45,20,5,185,3,276.66807290003635,None,276.66807290003635,None,276.66807290003635,None,right,0.46585480007342994,276.7493193000555,None,276.66807290003635,None,277.23815200000536,None,e,001,2022_Jan_23_1047,contrast,2021.2.3,60.534996189768655,
0.5,20,6,186,4,277.46525060001295,None,277.46525060001295,None,277.46525060001295,None,right,0.4497603999916464,277.53273289999925,None,277.46525060001295,None,278.0016737000551,None,e,001,2022_Jan_23_1047,contrast,2021.2.3,60.534996189768655,
0.55,20,7,187,5,278.2165615000995,None,278.2165615000995,None,278.2165615000995,None,right,0.34071150003001094,278.3152370000025,None,278.2165615000995,None,278.68572840001434,None,e,001,2022_Jan_23_1047,contrast,2021.2.3,60.534996189768655,
0.1,20,8,188,0,278.9027663000161,None,278.9027663000161,None,278.9027663000161,None,left,0.23019030003342777,278.98456350003835,None,278.9027663000161,None,279.23529050010256,None,e,001,2022_Jan_23_1047,contrast,2021.2.3,60.534996189768655,
0.3,21,0,189,1,279.4530684000347,None,279.4530684000347,None,279.4530684000347,None,right,0.895800199941732,279.5348331000423,None,279.4530684000347,None,280.46381060010754,None,e,001,2022_Jan_23_1047,contrast,2021.2.3,60.534996189768655,
0.9,21,1,190,8,280.66621480009053,None,280.66621480009053,None,280.66621480009053,None,right,0.6279939999803901,280.7473124000244,None,280.66621480009053,None,281.40207760001067,None,e,001,2022_Jan_23_1047,contrast,2021.2.3,60.534996189768655,
0.1,21,2,191,0,281.61460840003565,None,281.61460840003565,None,281.61460840003565,None,left,0.6701783000025898,281.6964600000065,None,281.61460840003565,None,282.4003213000251,None,e,001,2022_Jan_23_1047,contrast,2021.2.3,60.534996189768655,
0.6,21,3,192,6,282.6120001000818,None,282.6120001000818,None,282.6120001000818,None,right,0.3762379999971017,282.69452280004043,None,282.6120001000818,None,283.11785490007605,None,e,001,2022_Jan_23_1047,contrast,2021.2.3,60.534996189768655,
0.55,21,4,193,5,283.33091290004086,None,283.33091290004086,None,283.33091290004086,None,left,0.5073594999266788,283.4127342000138,None,283.33091290004086,None,283.949167600018,None,e,001,2022_Jan_23_1047,contrast,2021.2.3,60.534996189768655,
0.45,21,5,194,3,284.16660100000445,None,284.16660100000445,None,284.16660100000445,None,right,0.79536280001048,284.2604939000448,None,284.16660100000445,None,285.08036110003013,None,e,001,2022_Jan_23_1047,contrast,2021.2.3,60.534996189768655,
0.7,21,6,195,7,285.2934714000439,None,285.2934714000439,None,285.2934714000439,None,right,0.43013009999413043,285.3616298000561,None,285.2934714000439,None,285.8187648000894,None,e,001,2022_Jan_23_1047,contrast,2021.2.3,60.534996189768655,
0.4,21,7,196,2,286.0273355001118,None,286.0273355001118,None,286.0273355001118,None,right,0.530709799961187,286.10818270000163,None,286.0273355001118,None,286.6641660000896,None,e,001,2022_Jan_23_1047,contrast,2021.2.3,60.534996189768655,
0.5,21,8,197,4,286.8750510000391,None,286.8750510000391,None,286.8750510000391,None,right,1.2824501999421045,286.9574379000114,None,286.8750510000391,None,288.2600551000796,None,e,001,2022_Jan_23_1047,contrast,2021.2.3,60.534996189768655,
0.7,22,0,198,7,288.4734581001103,None,288.4734581001103,None,288.4734581001103,None,left,1.3625256000086665,288.556497600046,None,288.4734581001103,None,289.9406255000504,None,e,001,2022_Jan_23_1047,contrast,2021.2.3,60.534996189768655,
0.4,22,1,199,2,290.15639480005484,None,290.15639480005484,None,290.15639480005484,None,left,1.4429346000542864,290.2371643000515,None,290.15639480005484,None,291.71110710001085,None,e,001,2022_Jan_23_1047,contrast,2021.2.3,60.534996189768655,
0.6,22,2,200,6,291.92137160000857,None,291.92137160000857,None,291.92137160000857,None,right,0.6818457000190392,292.00488230003975,None,291.92137160000857,None,292.71172030002344,None,e,001,2022_Jan_23_1047,contrast,2021.2.3,60.534996189768655,
0.45,22,3,201,3,292.9211200000718,None,292.9211200000718,None,292.9211200000718,None,left,1.7310441000154242,292.98745810007676,None,292.9211200000718,None,294.76085300010163,None,e,001,2022_Jan_23_1047,contrast,2021.2.3,60.534996189768655,
0.55,22,4,202,5,294.9732759000035,None,294.9732759000035,None,294.9732759000035,None,right,0.5487099000019953,295.0512113000732,None,294.9732759000035,None,295.62018190009985,None,e,001,2022_Jan_23_1047,contrast,2021.2.3,60.534996189768655,
0.1,22,5,203,0,295.8373934000265,None,295.8373934000265,None,295.8373934000265,None,left,0.67471559997648,295.91783869999927,None,295.8373934000265,None,296.61889910011087,None,e,001,2022_Jan_23_1047,contrast,2021.2.3,60.534996189768655,
0.9,22,6,204,8,296.8331762000453,None,296.8331762000453,None,296.8331762000453,None,right,0.44411689997650683,296.90026040002704,None,296.8331762000453,None,297.3821202000836,None,e,001,2022_Jan_23_1047,contrast,2021.2.3,60.534996189768655,
0.5,22,7,205,4,297.5829506000737,None,297.5829506000737,None,297.5829506000737,None,right,1.2100911000743508,297.65248830011114,None,297.5829506000737,None,298.90737280005123,None,e,001,2022_Jan_23_1047,contrast,2021.2.3,60.534996189768655,
0.3,22,8,206,1,299.12176530004945,None,299.12176530004945,None,299.12176530004945,None,left,0.8477414000080898,299.2148895000573,None,299.12176530004945,None,300.10285910009407,None,e,001,2022_Jan_23_1047,contrast,2021.2.3,60.534996189768655,
0.7,23,0,207,7,300.31805680005345,None,300.31805680005345,None,300.31805680005345,None,right,1.1706139999441803,300.4135218000738,None,300.31805680005345,None,301.60324590001255,None,e,001,2022_Jan_23_1047,contrast,2021.2.3,60.534996189768655,
0.4,23,1,208,2,301.8165421000449,None,301.8165421000449,None,301.8165421000449,None,left,0.7749743999447674,301.89735360001214,None,301.8165421000449,None,302.7001517000608,None,e,001,2022_Jan_23_1047,contrast,2021.2.3,60.534996189768655,
0.45,23,2,209,3,302.9120947000338,None,302.9120947000338,None,302.9120947000338,None,left,0.5092315000947565,302.9937319000019,None,302.9120947000338,None,303.52632510010153,None,e,001,2022_Jan_23_1047,contrast,2021.2.3,60.534996189768655,
0.9,23,3,210,8,303.72884380002506,None,303.72884380002506,None,303.72884380002506,None,left,0.31562100001610816,303.81101640011184,None,303.72884380002506,None,304.1596034000395,None,e,001,2022_Jan_23_1047,contrast,2021.2.3,60.534996189768655,
0.5,23,4,211,4,304.36152360006236,None,304.36152360006236,None,304.36152360006236,None,left,0.8366231999825686,304.44181750004645,None,304.36152360006236,None,305.31531400000677,None,e,001,2022_Jan_23_1047,contrast,2021.2.3,60.534996189768655,
0.6,23,5,212,6,305.5251589000691,None,305.5251589000691,None,305.5251589000691,None,right,0.4540928000351414,305.59234730002936,None,305.5251589000691,None,306.0813081000233,None,e,001,2022_Jan_23_1047,contrast,2021.2.3,60.534996189768655,
0.3,23,6,213,1,306.2914521000348,None,306.2914521000348,None,306.2914521000348,None,left,0.5701945000328124,306.3740518001141,None,306.2914521000348,None,306.96464940009173,None,e,001,2022_Jan_23_1047,contrast,2021.2.3,60.534996189768655,
0.1,23,7,214,0,307.17503370007034,None,307.17503370007034,None,307.17503370007034,None,left,0.5502156000584364,307.257106800098,None,307.17503370007034,None,307.82708630000707,None,e,001,2022_Jan_23_1047,contrast,2021.2.3,60.534996189768655,
0.55,23,8,215,5,308.0394555000821,None,308.0394555000821,None,308.0394555000821,None,right,0.5955355999758467,308.1235271000769,None,308.0394555000821,None,308.7432429000037,None,e,001,2022_Jan_23_1047,contrast,2021.2.3,60.534996189768655,
0.6,24,0,216,6,308.9540262001101,None,308.9540262001101,None,308.9540262001101,None,right,0.4392750000115484,309.03147240006365,None,308.9540262001101,None,309.50497000000905,None,e,001,2022_Jan_23_1047,contrast,2021.2.3,60.534996189768655,
0.5,24,1,217,4,309.70587180007715,None,309.70587180007715,None,309.70587180007715,None,right,0.4838206999702379,309.7872936000349,None,309.70587180007715,None,310.29044610005803,None,e,001,2022_Jan_23_1047,contrast,2021.2.3,60.534996189768655,
0.55,24,2,218,5,310.50391180010047,None,310.50391180010047,None,310.50391180010047,None,right,0.4652219000272453,310.5895579000935,None,310.50391180010047,None,311.07508070010226,None,e,001,2022_Jan_23_1047,contrast,2021.2.3,60.534996189768655,
0.7,24,3,219,7,311.2871978000039,None,311.2871978000039,None,311.2871978000039,None,right,0.58080080000218,311.3539133000886,None,311.2871978000039,None,311.95742080011405,None,e,001,2022_Jan_23_1047,contrast,2021.2.3,60.534996189768655,
0.1,24,4,220,0,312.16969120001886,None,312.16969120001886,None,312.16969120001886,None,left,0.6268888999475166,312.23718800011557,None,312.16969120001886,None,312.8917003000388,None,e,001,2022_Jan_23_1047,contrast,2021.2.3,60.534996189768655,
0.45,24,5,221,3,313.10187230003066,None,313.10187230003066,None,313.10187230003066,None,left,1.3435940999770537,313.16879160003737,None,313.10187230003066,None,314.53658490011003,None,e,001,2022_Jan_23_1047,contrast,2021.2.3,60.534996189768655,
0.3,24,6,222,1,314.7507312000962,None,314.7507312000962,None,314.7507312000962,None,right,0.49354609998408705,314.8184451000998,None,314.7507312000962,None,315.3390973000787,None,e,001,2022_Jan_23_1047,contrast,2021.2.3,60.534996189768655,
0.9,24,7,223,8,315.55071260000113,None,315.55071260000113,None,315.55071260000113,None,right,0.6684669000096619,315.6180998000782,None,315.55071260000113,None,316.3052117000334,None,e,001,2022_Jan_23_1047,contrast,2021.2.3,60.534996189768655,
0.4,24,8,224,2,316.51657960005105,None,316.51657960005105,None,316.51657960005105,None,left,1.2865899000316858,316.5998898000689,None,316.51657960005105,None,317.91986800008453,None,e,001,2022_Jan_23_1047,contrast,2021.2.3,60.534996189768655,
0.5,25,0,225,4,318.13134700001683,None,318.13134700001683,None,318.13134700001683,None,left,0.5213402999797836,318.2139211000176,None,318.13134700001683,None,318.75676920008846,None,e,001,2022_Jan_23_1047,contrast,2021.2.3,60.534996189768655,
0.4,25,1,226,2,318.9644526001066,None,318.9644526001066,None,318.9644526001066,None,left,0.5844833999872208,319.04760940000415,None,318.9644526001066,None,319.6523000000743,None,e,001,2022_Jan_23_1047,contrast,2021.2.3,60.534996189768655,
0.1,25,2,227,0,319.8683399000438,None,319.8683399000438,None,319.8683399000438,None,right,0.36469750001560897,319.9553798000561,None,319.8683399000438,None,320.35087750002276,None,e,001,2022_Jan_23_1047,contrast,2021.2.3,60.534996189768655,
0.45,25,3,228,3,320.56405670009553,None,320.56405670009553,None,320.56405670009553,None,right,1.000910099945031,320.64576730004046,None,320.56405670009553,None,321.6832440000726,None,e,001,2022_Jan_23_1047,contrast,2021.2.3,60.534996189768655,
0.3,25,4,229,1,321.89565660001244,None,321.89565660001244,None,321.89565660001244,None,right,0.4690263000084087,321.9776277000783,None,321.89565660001244,None,322.4843787000282,None,e,001,2022_Jan_23_1047,contrast,2021.2.3,60.534996189768655,
0.6,25,5,230,6,322.69441430002917,None,322.69441430002917,None,322.69441430002917,None,right,0.39178679999895394,322.7767945000669,None,322.69441430002917,None,323.1981937000528,None,e,001,2022_Jan_23_1047,contrast,2021.2.3,60.534996189768655,
0.9,25,6,231,8,323.4097927000839,None,323.4097927000839,None,323.4097927000839,None,right,0.5707660000771284,323.49178510007914,None,323.4097927000839,None,324.097247500089,None,e,001,2022_Jan_23_1047,contrast,2021.2.3,60.534996189768655,
0.55,25,7,232,5,324.30842180002946,None,324.30842180002946,None,324.30842180002946,None,right,0.47063180000986904,324.39182720007375,None,324.30842180002946,None,324.89591530000325,None,e,001,2022_Jan_23_1047,contrast,2021.2.3,60.534996189768655,
0.7,25,8,233,7,325.1082467000233,None,325.1082467000233,None,325.1082467000233,None,right,0.5519720000447705,325.1756103000371,None,325.1082467000233,None,325.74662640003953,None,e,001,2022_Jan_23_1047,contrast,2021.2.3,60.534996189768655,
0.9,26,0,234,8,325.9582628000062,None,325.9582628000062,None,325.9582628000062,None,right,0.566497000050731,326.04156510008033,None,325.9582628000062,None,326.6279252000386,None,e,001,2022_Jan_23_1047,contrast,2021.2.3,60.534996189768655,
0.7,26,1,235,7,326.84020320000127,None,326.84020320000127,None,326.84020320000127,None,right,0.8829920999705791,326.9076347000664,None,326.84020320000127,None,327.82791450002696,None,e,001,2022_Jan_23_1047,contrast,2021.2.3,60.534996189768655,
0.55,26,2,236,5,328.03865770006087,None,328.03865770006087,None,328.03865770006087,None,right,0.7112962999381125,328.1209606000921,None,328.03865770006087,None,328.8626347000245,None,e,001,2022_Jan_23_1047,contrast,2021.2.3,60.534996189768655,
0.45,26,3,237,3,329.07389290002175,None,329.07389290002175,None,329.07389290002175,None,left,1.2275844999821857,329.15512230002787,None,329.07389290002175,None,330.4054097000044,None,e,001,2022_Jan_23_1047,contrast,2021.2.3,60.534996189768655,
0.6,26,4,238,6,330.6213186000241,None,330.6213186000241,None,330.6213186000241,None,left,0.7686219000024721,330.70206360006705,None,330.6213186000241,None,331.50641990010627,None,e,001,2022_Jan_23_1047,contrast,2021.2.3,60.534996189768655,
0.3,26,5,239,1,331.71892040001694,None,331.71892040001694,None,331.71892040001694,None,right,0.5158097000094131,331.80324080004357,None,331.71892040001694,None,332.3431229001144,None,e,001,2022_Jan_23_1047,contrast,2021.2.3,60.534996189768655,
0.1,26,6,240,0,332.5532640001038,None,332.5532640001038,None,332.5532640001038,None,right,1.4602272999472916,332.63572440005373,None,332.5532640001038,None,334.12271900009364,None,e,001,2022_Jan_23_1047,contrast,2021.2.3,60.534996189768655,
0.5,26,7,241,4,334.3335211001104,None,334.3335211001104,None,334.3335211001104,None,right,0.8780914000235498,334.40063140005805,None,334.3335211001104,None,335.3141936000902,None,e,001,2022_Jan_23_1047,contrast,2021.2.3,60.534996189768655,
0.4,26,8,242,2,335.51707300008275,None,335.51707300008275,None,335.51707300008275,None,right,1.4260696000419557,335.5981189000886,None,335.51707300008275,None,337.0523525000317,None,e,001,2022_Jan_23_1047,contrast,2021.2.3,60.534996189768655,
0.3,27,0,243,1,337.2652419001097,None,337.2652419001097,None,337.2652419001097,None,right,0.4752854999387637,337.3480247000698,None,337.2652419001097,None,337.8465217000339,None,e,001,2022_Jan_23_1047,contrast,2021.2.3,60.534996189768655,
0.7,27,1,244,7,338.0473974000197,None,338.0473974000197,None,338.0473974000197,None,right,0.6042932000709698,338.13014210003894,None,338.0473974000197,None,338.7676614000229,None,e,001,2022_Jan_23_1047,contrast,2021.2.3,60.534996189768655,
0.1,27,2,245,0,338.97917940001935,None,338.97917940001935,None,338.97917940001935,None,left,0.5514477000106126,339.0630764000816,None,338.97917940001935,None,339.64925000001676,None,e,001,2022_Jan_23_1047,contrast,2021.2.3,60.534996189768655,
0.55,27,3,246,5,339.8681953001069,None,339.8681953001069,None,339.8681953001069,None,right,0.9449107000837103,339.94965660001617,None,339.8681953001069,None,340.92671460006386,None,e,001,2022_Jan_23_1047,contrast,2021.2.3,60.534996189768655,
0.5,27,4,247,4,341.1303332000971,None,341.1303332000971,None,341.1303332000971,None,right,0.8514278000220656,341.211037900066,None,341.1303332000971,None,342.10009310010355,None,e,001,2022_Jan_23_1047,contrast,2021.2.3,60.534996189768655,
0.9,27,5,248,8,342.3114214000525,None,342.3114214000525,None,342.3114214000525,None,right,1.3187865000218153,342.3918796000071,None,342.3114214000525,None,343.7434878000058,None,e,001,2022_Jan_23_1047,contrast,2021.2.3,60.534996189768655,
0.45,27,6,249,3,343.95804950001184,None,343.95804950001184,None,343.95804950001184,None,right,0.8866143000777811,344.0406609000638,None,343.95804950001184,None,344.95103700004984,None,e,001,2022_Jan_23_1047,contrast,2021.2.3,60.534996189768655,
0.4,27,7,250,2,345.1614396000514,None,345.1614396000514,None,345.1614396000514,None,right,1.4140934000024572,345.2403498000931,None,345.1614396000514,None,346.69233500002883,None,e,001,2022_Jan_23_1047,contrast,2021.2.3,60.534996189768655,
0.6,27,8,251,6,346.90695980004966,None,346.90695980004966,None,346.90695980004966,None,right,0.829477799939923,346.97716630005743,None,346.90695980004966,None,347.8409625000786,None,e,001,2022_Jan_23_1047,contrast,2021.2.3,60.534996189768655,
0.7,28,0,252,7,348.0583376000868,None,348.0583376000868,None,348.0583376000868,None,right,0.6233700000448152,348.14305560011417,None,348.0583376000868,None,348.791006000014,None,e,001,2022_Jan_23_1047,contrast,2021.2.3,60.534996189768655,
0.3,28,1,253,1,349.00496820011176,None,349.00496820011176,None,349.00496820011176,None,left,0.49547209998127073,349.0876379000256,None,349.00496820011176,None,349.60823910008185,None,e,001,2022_Jan_23_1047,contrast,2021.2.3,60.534996189768655,
0.55,28,2,254,5,349.8242457000306,None,349.8242457000306,None,349.8242457000306,None,left,1.5665423000464216,349.90424730000086,None,349.8242457000306,None,351.50381900009234,None,e,001,2022_Jan_23_1047,contrast,2021.2.3,60.534996189768655,
0.5,28,3,255,4,351.70664250000846,None,351.70664250000846,None,351.70664250000846,None,left,0.6266136000631377,351.78856980009004,None,351.70664250000846,None,352.43898310000077,None,e,001,2022_Jan_23_1047,contrast,2021.2.3,60.534996189768655,
0.45,28,4,256,3,352.65089480008464,None,352.65089480008464,None,352.65089480008464,None,left,0.4180719000287354,352.7338265000144,None,352.65089480008464,None,353.1731682000682,None,e,001,2022_Jan_23_1047,contrast,2021.2.3,60.534996189768655,
0.9,28,5,257,8,353.3848681000527,None,353.3848681000527,None,353.3848681000527,None,right,0.6276349999243394,353.4510814000387,None,353.3848681000527,None,354.1015498000197,None,e,001,2022_Jan_23_1047,contrast,2021.2.3,60.534996189768655,
0.6,28,6,258,6,354.31655330001377,None,354.31655330001377,None,354.31655330001377,None,right,0.5609670999692753,354.4150889000157,None,354.31655330001377,None,355.0143989000935,None,e,001,2022_Jan_23_1047,contrast,2021.2.3,60.534996189768655,
0.4,28,7,259,2,355.2159242000198,None,355.2159242000198,None,355.2159242000198,None,left,1.0368455999996513,355.29788800003007,None,355.2159242000198,None,356.366215200047,None,e,001,2022_Jan_23_1047,contrast,2021.2.3,60.534996189768655,
0.1,28,8,260,0,356.5852765000891,None,356.5852765000891,None,356.5852765000891,None,left,0.4993973000673577,356.6677276000846,None,356.5852765000891,None,357.18773090001196,None,e,001,2022_Jan_23_1047,contrast,2021.2.3,60.534996189768655,
0.6,29,0,261,6,357.40120220009703,None,357.40120220009703,None,357.40120220009703,None,right,0.6318099999334663,357.47917090007104,None,357.40120220009703,None,358.1347887000302,None,e,001,2022_Jan_23_1047,contrast,2021.2.3,60.534996189768655,
0.7,29,1,262,7,358.34642950003035,None,358.34642950003035,None,358.34642950003035,None,right,0.4971339999465272,358.4293312000809,None,358.34642950003035,None,358.96329460002016,None,e,001,2022_Jan_23_1047,contrast,2021.2.3,60.534996189768655,
0.45,29,2,263,3,359.1790042000357,None,359.1790042000357,None,359.1790042000357,None,right,0.4637559000402689,359.26301480003167,None,359.1790042000357,None,359.76006300002337,None,e,001,2022_Jan_23_1047,contrast,2021.2.3,60.534996189768655,
0.1,29,3,264,0,359.9794698000187,None,359.9794698000187,None,359.9794698000187,None,left,0.5690770999062806,360.0539944000775,None,359.9794698000187,None,360.6505084000528,None,e,001,2022_Jan_23_1047,contrast,2021.2.3,60.534996189768655,
0.9,29,4,265,8,360.8619931000285,None,360.8619931000285,None,360.8619931000285,None,right,0.7195634000236169,360.942990200012,None,360.8619931000285,None,361.69917750009336,None,e,001,2022_Jan_23_1047,contrast,2021.2.3,60.534996189768655,
0.3,29,5,266,1,361.9098778000334,None,361.9098778000334,None,361.9098778000334,None,left,0.7059756999369711,361.98108780011535,None,361.9098778000334,None,362.7152130000759,None,e,001,2022_Jan_23_1047,contrast,2021.2.3,60.534996189768655,
0.55,29,6,267,5,362.92566680000164,None,362.92566680000164,None,362.92566680000164,None,left,0.7181997000006959,363.0099175000796,None,362.92566680000164,None,363.7458285000175,None,e,001,2022_Jan_23_1047,contrast,2021.2.3,60.534996189768655,
0.4,29,7,268,2,363.9588964000577,None,363.9588964000577,None,363.9588964000577,None,right,0.4702631999971345,364.04036170011386,None,363.9588964000577,None,364.54444490000606,None,e,001,2022_Jan_23_1047,contrast,2021.2.3,60.534996189768655,
0.5,29,8,269,4,364.75785790011287,None,364.75785790011287,None,364.75785790011287,None,right,0.4702568999491632,364.84047470008954,None,364.75785790011287,None,365.3472369000083,None,e,001,2022_Jan_23_1047,contrast,2021.2.3,60.534996189768655,
