rgb_luminance,trials.thisRepN,trials.thisTrialN,trials.thisN,trials.thisIndex,patch_background.started,patch_background.stopped,patch_foreground.started,patch_foreground.stopped,patch_test.started,patch_test.stopped,key_response.keys,key_response.rt,key_response.started,key_response.stopped,text_task.started,text_task.stopped,text.started,text.stopped,participant,session,date,expName,psychopyVersion,frameRate,
0.9,0,0,0,8,13.376456400030293,None,13.376456400030293,None,13.376456400030293,None,right,2.83467249997193,13.46455060003791,None,13.376456400030293,None,16.34520490001887,None,t,001,2022_Jan_22_1837,contrast,2021.2.3,60.16905097802823,
0.55,0,1,1,5,16.54587110003922,None,16.54587110003922,None,16.54587110003922,None,right,1.478845799982082,16.628357300010975,None,16.54587110003922,None,18.131938100035768,None,t,001,2022_Jan_22_1837,contrast,2021.2.3,60.16905097802823,
0.7,0,2,2,7,18.343744800018612,None,18.343744800018612,None,18.343744800018612,None,right,0.7684174999594688,18.426848800037988,None,18.343744800018612,None,19.211281600000802,None,t,001,2022_Jan_22_1837,contrast,2021.2.3,60.16905097802823,
0.5,0,3,3,4,19.425849699997343,None,19.425849699997343,None,19.425849699997343,None,left,3.6241748000029474,19.509225700050592,None,19.425849699997343,None,23.15832510002656,None,t,001,2022_Jan_22_1837,contrast,2021.2.3,60.16905097802823,
0.45,0,4,4,3,23.372687400027644,None,23.372687400027644,None,23.372687400027644,None,left,1.1329919999698177,23.45589090004796,None,23.372687400027644,None,24.60690270003397,None,t,001,2022_Jan_22_1837,contrast,2021.2.3,60.16905097802823,
0.4,0,5,5,2,24.821243400045205,None,24.821243400045205,None,24.821243400045205,None,left,1.4610717000323348,24.90434590005316,None,24.821243400045205,None,26.3888204000541,None,t,001,2022_Jan_22_1837,contrast,2021.2.3,60.16905097802823,
0.1,0,6,6,0,26.60277420002967,None,26.60277420002967,None,26.60277420002967,None,left,0.7650350999902003,26.686097500030883,None,26.60277420002967,None,27.487054000026546,None,t,001,2022_Jan_22_1837,contrast,2021.2.3,60.16905097802823,
0.6,0,7,7,6,27.70207230001688,None,27.70207230001688,None,27.70207230001688,None,right,0.737998399999924,27.78523259999929,None,27.70207230001688,None,28.553157000045758,None,t,001,2022_Jan_22_1837,contrast,2021.2.3,60.16905097802823,
0.3,0,8,8,1,28.768001400050707,None,28.768001400050707,None,28.768001400050707,None,left,3.5921170999645256,28.851122200023383,None,28.768001400050707,None,32.464377199998125,None,t,001,2022_Jan_22_1837,contrast,2021.2.3,60.16905097802823,
0.4,1,0,9,2,32.66447940003127,None,32.66447940003127,None,32.66447940003127,None,right,1.3115940999705344,32.74767320003593,None,32.66447940003127,None,34.08005550003145,None,t,001,2022_Jan_22_1837,contrast,2021.2.3,60.16905097802823,
0.6,1,1,10,6,34.28008660004707,None,34.28008660004707,None,34.28008660004707,None,right,0.6251868000254035,34.36347150005167,None,34.28008660004707,None,35.01430340000661,None,t,001,2022_Jan_22_1837,contrast,2021.2.3,60.16905097802823,
0.45,1,2,11,3,35.2287428000127,None,35.2287428000127,None,35.2287428000127,None,right,1.4194107000366785,35.31192700000247,None,35.2287428000127,None,36.76066330005415,None,t,001,2022_Jan_22_1837,contrast,2021.2.3,60.16905097802823,
0.5,1,3,12,4,36.961734500015154,None,36.961734500015154,None,36.961734500015154,None,right,1.8639250000123866,37.04395860002842,None,36.961734500015154,None,38.928102000034414,None,t,001,2022_Jan_22_1837,contrast,2021.2.3,60.16905097802823,
0.1,1,4,13,0,39.14482010004576,None,39.14482010004576,None,39.14482010004576,None,left,0.8499514000141062,39.22532320005121,None,39.14482010004576,None,40.09349260001909,None,t,001,2022_Jan_22_1837,contrast,2021.2.3,60.16905097802823,
0.7,1,5,14,7,40.30965280003147,None,40.30965280003147,None,40.30965280003147,None,right,0.8043409999809228,40.39092050003819,None,40.30965280003147,None,41.22578600002453,None,t,001,2022_Jan_22_1837,contrast,2021.2.3,60.16905097802823,
0.9,1,6,15,8,41.440230900014285,None,41.440230900014285,None,41.440230900014285,None,right,0.6807348000002094,41.52334010001505,None,41.440230900014285,None,42.22488970000995,None,t,001,2022_Jan_22_1837,contrast,2021.2.3,60.16905097802823,
0.55,1,7,16,5,42.439322000020184,None,42.439322000020184,None,42.439322000020184,None,right,0.8173299999907613,42.52230569999665,None,42.439322000020184,None,43.37179980002111,None,t,001,2022_Jan_22_1837,contrast,2021.2.3,60.16905097802823,
0.3,1,8,17,1,43.57289470004616,None,43.57289470004616,None,43.57289470004616,None,left,1.3006455000140704,43.65485059999628,None,43.57289470004616,None,44.972728900029324,None,t,001,2022_Jan_22_1837,contrast,2021.2.3,60.16905097802823,
0.9,2,0,18,8,45.18689450004604,None,45.18689450004604,None,45.18689450004604,None,right,0.5340602999785915,45.26999890001025,None,45.18689450004604,None,45.82219160004752,None,t,001,2022_Jan_22_1837,contrast,2021.2.3,60.16905097802823,
0.6,2,1,19,6,46.03624650003621,None,46.03624650003621,None,46.03624650003621,None,right,1.0293984999880195,46.11940680001862,None,46.03624650003621,None,47.17058040003758,None,t,001,2022_Jan_22_1837,contrast,2021.2.3,60.16905097802823,
0.1,2,2,20,0,47.384980500035454,None,47.384980500035454,None,47.384980500035454,None,left,0.7513819000450894,47.46799070003908,None,47.384980500035454,None,48.25278760003857,None,t,001,2022_Jan_22_1837,contrast,2021.2.3,60.16905097802823,
0.3,2,3,21,1,48.46743509999942,None,48.46743509999942,None,48.46743509999942,None,left,2.182055000041146,48.550437600002624,None,48.46743509999942,None,50.751084400049876,None,t,001,2022_Jan_22_1837,contrast,2021.2.3,60.16905097802823,
0.7,2,4,22,7,50.96525000000838,None,50.96525000000838,None,50.96525000000838,None,right,0.8026503000291996,51.048568000027444,None,50.96525000000838,None,51.88292940001702,None,t,001,2022_Jan_22_1837,contrast,2021.2.3,60.16905097802823,
0.55,2,5,23,5,52.09729160001734,None,52.09729160001734,None,52.09729160001734,None,right,0.8226195999886841,52.180570400028955,None,52.09729160001734,None,53.03487910004333,None,t,001,2022_Jan_22_1837,contrast,2021.2.3,60.16905097802823,
0.4,2,6,24,2,53.246586800029036,None,53.246586800029036,None,53.246586800029036,None,right,1.4018106000148691,53.32959960005246,None,53.246586800029036,None,54.76391470001545,None,t,001,2022_Jan_22_1837,contrast,2021.2.3,60.16905097802823,
0.45,2,7,25,3,54.97832789999666,None,54.97832789999666,None,54.97832789999666,None,right,1.7665863999864087,55.06146170001011,None,54.97832789999666,None,56.84606890002033,None,t,001,2022_Jan_22_1837,contrast,2021.2.3,60.16905097802823,
0.5,2,8,26,4,57.060054900008254,None,57.060054900008254,None,57.060054900008254,None,right,1.5418443999951705,57.14294350001728,None,57.060054900008254,None,58.71095740003511,None,t,001,2022_Jan_22_1837,contrast,2021.2.3,60.16905097802823,
0.9,3,0,27,8,58.924974200024735,None,58.924974200024735,None,58.924974200024735,None,right,0.76352149999002,59.008195200003684,None,58.924974200024735,None,59.79295440000715,None,t,001,2022_Jan_22_1837,contrast,2021.2.3,60.16905097802823,
0.4,3,1,28,2,60.007707500015385,None,60.007707500015385,None,60.007707500015385,None,left,2.768793499970343,60.09050810005283,None,60.007707500015385,None,62.8901694000233,None,t,001,2022_Jan_22_1837,contrast,2021.2.3,60.16905097802823,
0.1,3,2,29,0,63.10477690002881,None,63.10477690002881,None,63.10477690002881,None,left,0.5027661000494845,63.18863540003076,None,63.10477690002881,None,63.723172900034115,None,t,001,2022_Jan_22_1837,contrast,2021.2.3,60.16905097802823,
0.5,3,3,30,4,63.937326100014616,None,63.937326100014616,None,63.937326100014616,None,right,1.1761559000005946,64.02061820001109,None,63.937326100014616,None,65.22149790002732,None,t,001,2022_Jan_22_1837,contrast,2021.2.3,60.16905097802823,
0.6,3,4,31,6,65.43578430003254,None,65.43578430003254,None,65.43578430003254,None,right,0.9722473999718204,65.51905270002317,None,65.43578430003254,None,66.52188960002968,None,t,001,2022_Jan_22_1837,contrast,2021.2.3,60.16905097802823,
0.45,3,5,32,3,66.73487510002451,None,66.73487510002451,None,66.73487510002451,None,right,1.2269218000001274,66.81781259999843,None,66.73487510002451,None,68.06950230000075,None,t,001,2022_Jan_22_1837,contrast,2021.2.3,60.16905097802823,
0.55,3,6,33,5,68.2839092000504,None,68.2839092000504,None,68.2839092000504,None,right,1.004633299948182,68.36656620004214,None,68.2839092000504,None,69.401336800016,None,t,001,2022_Jan_22_1837,contrast,2021.2.3,60.16905097802823,
0.7,3,7,34,7,69.61584490002133,None,69.61584490002133,None,69.61584490002133,None,right,0.5046374999801628,69.6987810000428,None,69.61584490002133,None,70.23500870005228,None,t,001,2022_Jan_22_1837,contrast,2021.2.3,60.16905097802823,
0.3,3,8,35,1,70.44813940004678,None,70.44813940004678,None,70.44813940004678,None,left,0.8250761999515817,70.53162770002382,None,70.44813940004678,None,71.38335050002206,None,t,001,2022_Jan_22_1837,contrast,2021.2.3,60.16905097802823,
0.6,4,0,36,6,71.59716480004136,None,71.59716480004136,None,71.59716480004136,None,right,1.8190636000363156,71.68014180002501,None,71.59716480004136,None,73.53123400005279,None,t,001,2022_Jan_22_1837,contrast,2021.2.3,60.16905097802823,
0.3,4,1,37,1,73.74538740003482,None,73.74538740003482,None,73.74538740003482,None,left,0.6960086000035517,73.82853300002171,None,73.74538740003482,None,74.54701900004875,None,t,001,2022_Jan_22_1837,contrast,2021.2.3,60.16905097802823,
0.5,4,2,38,4,74.76128790003713,None,74.76128790003713,None,74.76128790003713,None,right,1.7769119999720715,74.84436440002173,None,74.76128790003713,None,76.64471230003983,None,t,001,2022_Jan_22_1837,contrast,2021.2.3,60.16905097802823,
0.7,4,3,39,7,76.85925680003129,None,76.85925680003129,None,76.85925680003129,None,right,0.9727164999931119,76.94246930000372,None,76.85925680003129,None,77.94415710004978,None,t,001,2022_Jan_22_1837,contrast,2021.2.3,60.16905097802823,
0.1,4,4,40,0,78.15823480003746,None,78.15823480003746,None,78.15823480003746,None,left,0.6332532000378706,78.24219070002437,None,78.15823480003746,None,78.89333250001073,None,t,001,2022_Jan_22_1837,contrast,2021.2.3,60.16905097802823,
0.55,4,5,41,5,79.10766180005157,None,79.10766180005157,None,79.10766180005157,None,right,0.7886511000106111,79.1906399000436,None,79.10766180005157,None,80.00911610003095,None,t,001,2022_Jan_22_1837,contrast,2021.2.3,60.16905097802823,
0.9,4,6,42,8,80.22306109999772,None,80.22306109999772,None,80.22306109999772,None,right,0.9848351000109687,80.30646110000089,None,80.22306109999772,None,81.30780629999936,None,t,001,2022_Jan_22_1837,contrast,2021.2.3,60.16905097802823,
0.45,4,7,43,3,81.52184650005074,None,81.52184650005074,None,81.52184650005074,None,right,1.1919491000007838,81.60483880003449,None,81.52184650005074,None,82.8237264000345,None,t,001,2022_Jan_22_1837,contrast,2021.2.3,60.16905097802823,
0.4,4,8,44,2,83.03810410003643,None,83.03810410003643,None,83.03810410003643,None,left,1.8031112999888137,83.12026900000637,None,83.03810410003643,None,84.95653370005311,None,t,001,2022_Jan_22_1837,contrast,2021.2.3,60.16905097802823,
0.1,5,0,45,0,85.16902840003604,None,85.16902840003604,None,85.16902840003604,None,left,0.4872658999520354,85.25201500003459,None,85.16902840003604,None,85.77085369999986,None,t,001,2022_Jan_22_1837,contrast,2021.2.3,60.16905097802823,
0.45,5,1,46,3,85.98481410002569,None,85.98481410002569,None,85.98481410002569,None,right,1.1611946999910288,86.06768880004529,None,85.98481410002569,None,87.25271000002977,None,t,001,2022_Jan_22_1837,contrast,2021.2.3,60.16905097802823,
0.55,5,2,47,5,87.46673100005137,None,87.46673100005137,None,87.46673100005137,None,right,1.8213820999953896,87.54984280001372,None,87.46673100005137,None,89.40053870005067,None,t,001,2022_Jan_22_1837,contrast,2021.2.3,60.16905097802823,
0.4,5,3,48,2,89.61509490001481,None,89.61509490001481,None,89.61509490001481,None,right,2.105602700030431,89.69793930003652,None,89.61509490001481,None,91.82939220004482,None,t,001,2022_Jan_22_1837,contrast,2021.2.3,60.16905097802823,
0.5,5,4,49,4,92.03014610003447,None,92.03014610003447,None,92.03014610003447,None,right,0.7806045000324957,92.11237940000137,None,92.03014610003447,None,92.91634320002049,None,t,001,2022_Jan_22_1837,contrast,2021.2.3,60.16905097802823,
0.3,5,5,50,1,93.12848190002842,None,93.12848190002842,None,93.12848190002842,None,left,0.5600268000271171,93.21279680001317,None,93.12848190002842,None,93.79727110004751,None,t,001,2022_Jan_22_1837,contrast,2021.2.3,60.16905097802823,
0.6,5,6,51,6,94.01206200005254,None,94.01206200005254,None,94.01206200005254,None,right,0.7000477999681607,94.09523210005136,None,94.01206200005254,None,94.81275610002922,None,t,001,2022_Jan_22_1837,contrast,2021.2.3,60.16905097802823,
0.7,5,7,52,7,95.02798210002948,None,95.02798210002948,None,95.02798210002948,None,right,1.58916659996612,95.11001150001539,None,95.02798210002948,None,96.7277907000389,None,t,001,2022_Jan_22_1837,contrast,2021.2.3,60.16905097802823,
0.9,5,8,53,8,96.94193010003073,None,96.94193010003073,None,96.94193010003073,None,right,0.8916280999546871,97.02480579999974,None,96.94193010003073,None,97.94301040004939,None,t,001,2022_Jan_22_1837,contrast,2021.2.3,60.16905097802823,
0.9,6,0,54,8,98.15740680001909,None,98.15740680001909,None,98.15740680001909,None,right,0.9535172000178136,98.2416615000111,None,98.15740680001909,None,99.22532220004359,None,t,001,2022_Jan_22_1837,contrast,2021.2.3,60.16905097802823,
0.7,6,1,55,7,99.43967960000737,None,99.43967960000737,None,99.43967960000737,None,right,0.6819950000499375,99.52263840002706,None,99.43967960000737,None,100.22439680004027,None,t,001,2022_Jan_22_1837,contrast,2021.2.3,60.16905097802823,
0.3,6,2,56,1,100.43889650003985,None,100.43889650003985,None,100.43889650003985,None,left,0.7851938999956474,100.52198640001006,None,100.43889650003985,None,101.33980770001654,None,t,001,2022_Jan_22_1837,contrast,2021.2.3,60.16905097802823,
0.5,6,3,57,4,101.55459020001581,None,101.55459020001581,None,101.55459020001581,None,left,3.1107292999513447,101.63783680001507,None,101.55459020001581,None,104.77074230002472,None,t,001,2022_Jan_22_1837,contrast,2021.2.3,60.16905097802823,
0.4,6,4,58,2,104.98502610001015,None,104.98502610001015,None,104.98502610001015,None,left,0.8794907999690622,105.06812220002757,None,104.98502610001015,None,105.98596370004816,None,t,001,2022_Jan_22_1837,contrast,2021.2.3,60.16905097802823,
0.6,6,5,59,6,106.2005313000409,None,106.2005313000409,None,106.2005313000409,None,right,0.5771593000390567,106.28337330004433,None,106.2005313000409,None,106.88287170004332,None,t,001,2022_Jan_22_1837,contrast,2021.2.3,60.16905097802823,
0.1,6,6,60,0,107.08369960001437,None,107.08369960001437,None,107.08369960001437,None,left,0.701077300007455,107.16617260000203,None,107.08369960001437,None,107.88465449999785,None,t,001,2022_Jan_22_1837,contrast,2021.2.3,60.16905097802823,
0.55,6,7,61,5,108.09874950000085,None,108.09874950000085,None,108.09874950000085,None,right,0.6138781000045128,108.18192620004993,None,108.09874950000085,None,108.8170761000365,None,t,001,2022_Jan_22_1837,contrast,2021.2.3,60.16905097802823,
0.45,6,8,62,3,109.03205160005018,None,109.03205160005018,None,109.03205160005018,None,left,0.9771425999933854,109.11419590003788,None,109.03205160005018,None,110.11371080001118,None,t,001,2022_Jan_22_1837,contrast,2021.2.3,60.16905097802823,
0.55,7,0,63,5,110.3148702000035,None,110.3148702000035,None,110.3148702000035,None,right,1.4868414999800734,110.39642610005103,None,110.3148702000035,None,111.9138007000438,None,t,001,2022_Jan_22_1837,contrast,2021.2.3,60.16905097802823,
0.5,7,1,64,4,112.12887390004471,None,112.12887390004471,None,112.12887390004471,None,right,1.145319999952335,112.2116736000171,None,112.12887390004471,None,113.3795823000255,None,t,001,2022_Jan_22_1837,contrast,2021.2.3,60.16905097802823,
0.4,7,2,65,2,113.59384220000356,None,113.59384220000356,None,113.59384220000356,None,right,1.3755828000139445,113.6771150000277,None,113.59384220000356,None,115.07891280000331,None,t,001,2022_Jan_22_1837,contrast,2021.2.3,60.16905097802823,
0.6,7,3,66,6,115.29273560002912,None,115.29273560002912,None,115.29273560002912,None,right,1.1648022000445053,115.37552610004786,None,115.29273560002912,None,116.56038780004019,None,t,001,2022_Jan_22_1837,contrast,2021.2.3,60.16905097802823,
0.45,7,4,67,3,116.77453950000927,None,116.77453950000927,None,116.77453950000927,None,right,1.0275267999968491,116.8575475999969,None,116.77453950000927,None,117.90961720002815,None,t,001,2022_Jan_22_1837,contrast,2021.2.3,60.16905097802823,
0.1,7,5,68,0,118.12338590004947,None,118.12338590004947,None,118.12338590004947,None,left,0.5887560999835841,118.20641610003076,None,118.12338590004947,None,118.83918880001875,None,t,001,2022_Jan_22_1837,contrast,2021.2.3,60.16905097802823,
0.3,7,6,69,1,119.03928260004614,None,119.03928260004614,None,119.03928260004614,None,left,1.0492728999815881,119.12217440002132,None,119.03928260004614,None,120.19968970003538,None,t,001,2022_Jan_22_1837,contrast,2021.2.3,60.16905097802823,
0.9,7,7,70,8,120.40986250003334,None,120.40986250003334,None,120.40986250003334,None,right,0.5614111999748275,120.48996370000532,None,120.40986250003334,None,121.07306110003265,None,t,001,2022_Jan_22_1837,contrast,2021.2.3,60.16905097802823,
0.7,7,8,71,7,121.28745100001106,None,121.28745100001106,None,121.28745100001106,None,right,0.7847163999686018,121.37051790003898,None,121.28745100001106,None,122.18910450005205,None,t,001,2022_Jan_22_1837,contrast,2021.2.3,60.16905097802823,
0.7,8,0,72,7,122.40266180003528,None,122.40266180003528,None,122.40266180003528,None,right,0.4532813999685459,122.48587610002141,None,122.40266180003528,None,122.97090880002361,None,t,001,2022_Jan_22_1837,contrast,2021.2.3,60.16905097802823,
0.5,8,1,73,4,123.18530090001877,None,123.18530090001877,None,123.18530090001877,None,right,0.7602311000227928,123.26897200004896,None,123.18530090001877,None,124.0516322000185,None,t,001,2022_Jan_22_1837,contrast,2021.2.3,60.16905097802823,
0.9,8,2,74,8,124.2520018000505,None,124.2520018000505,None,124.2520018000505,None,right,0.6210048999637365,124.33434770000167,None,124.2520018000505,None,124.98620230000233,None,t,001,2022_Jan_22_1837,contrast,2021.2.3,60.16905097802823,
0.1,8,3,75,0,125.20052910002414,None,125.20052910002414,None,125.20052910002414,None,left,0.6156745000043884,125.2835783000337,None,125.20052910002414,None,125.93297860003076,None,t,001,2022_Jan_22_1837,contrast,2021.2.3,60.16905097802823,
0.6,8,4,76,6,126.13461560005089,None,126.13461560005089,None,126.13461560005089,None,right,0.8511236000340432,126.21605970000383,None,126.13461560005089,None,127.0847391000134,None,t,001,2022_Jan_22_1837,contrast,2021.2.3,60.16905097802823,
0.55,8,5,77,5,127.2985940000508,None,127.2985940000508,None,127.2985940000508,None,right,1.14317520003533,127.38166900002398,None,127.2985940000508,None,128.55003340000985,None,t,001,2022_Jan_22_1837,contrast,2021.2.3,60.16905097802823,
0.3,8,6,78,1,128.76403680001386,None,128.76403680001386,None,128.76403680001386,None,left,0.6841765000135638,128.8473576999968,None,128.76403680001386,None,129.54909380001482,None,t,001,2022_Jan_22_1837,contrast,2021.2.3,60.16905097802823,
0.4,8,7,79,2,129.76339330000337,None,129.76339330000337,None,129.76339330000337,None,right,2.6146086999797262,129.84617620002246,None,129.76339330000337,None,132.47988370002713,None,t,001,2022_Jan_22_1837,contrast,2021.2.3,60.16905097802823,
0.45,8,8,80,3,132.67887800000608,None,132.67887800000608,None,132.67887800000608,None,right,0.8030405000317842,132.76035910000792,None,132.67887800000608,None,133.59504790004576,None,t,001,2022_Jan_22_1837,contrast,2021.2.3,60.16905097802823,
0.5,9,0,81,4,133.80948050000006,None,133.80948050000006,None,133.80948050000006,None,right,0.7444952999940142,133.89263630000642,None,133.80948050000006,None,134.66095869999845,None,t,001,2022_Jan_22_1837,contrast,2021.2.3,60.16905097802823,
0.9,9,1,82,8,134.8752528000041,None,134.8752528000041,None,134.8752528000041,None,right,0.9421512000262737,134.95870480005397,None,134.8752528000041,None,135.92712410003878,None,t,001,2022_Jan_22_1837,contrast,2021.2.3,60.16905097802823,
0.4,9,2,83,2,136.14098900003592,None,136.14098900003592,None,136.14098900003592,None,left,0.6032330999732949,136.22417170001427,None,136.14098900003592,None,136.8594306000159,None,t,001,2022_Jan_22_1837,contrast,2021.2.3,60.16905097802823,
0.45,9,3,84,3,137.07338650000747,None,137.07338650000747,None,137.07338650000747,None,left,1.5121175000094809,137.15661930001806,None,137.07338650000747,None,138.69121850002557,None,t,001,2022_Jan_22_1837,contrast,2021.2.3,60.16905097802823,
0.6,9,4,85,6,138.90533780003898,None,138.90533780003898,None,138.90533780003898,None,right,0.8001976999803446,138.98815530003048,None,138.90533780003898,None,139.8065201000427,None,t,001,2022_Jan_22_1837,contrast,2021.2.3,60.16905097802823,
0.55,9,5,86,5,140.02093040000182,None,140.02093040000182,None,140.02093040000182,None,right,0.7549040000303648,140.10431419999804,None,140.02093040000182,None,140.90336900000693,None,t,001,2022_Jan_22_1837,contrast,2021.2.3,60.16905097802823,
0.1,9,6,87,0,141.10330560000148,None,141.10330560000148,None,141.10330560000148,None,left,0.5846973999869078,141.18664920004085,None,141.10330560000148,None,141.8048955000122,None,t,001,2022_Jan_22_1837,contrast,2021.2.3,60.16905097802823,
0.7,9,7,88,7,142.0197600000538,None,142.0197600000538,None,142.0197600000538,None,right,0.917072799988091,142.10233540000627,None,142.0197600000538,None,143.03712190000806,None,t,001,2022_Jan_22_1837,contrast,2021.2.3,60.16905097802823,
0.3,9,8,89,1,143.25143840000965,None,143.25143840000965,None,143.25143840000965,None,left,1.1572520000045188,143.33461520000128,None,143.25143840000965,None,144.51909549999982,None,t,001,2022_Jan_22_1837,contrast,2021.2.3,60.16905097802823,
0.1,10,0,90,0,144.73351670004195,None,144.73351670004195,None,144.73351670004195,None,left,0.828366499976255,144.81651840003906,None,144.73351670004195,None,145.66811810003128,None,t,001,2022_Jan_22_1837,contrast,2021.2.3,60.16905097802823,
0.55,10,1,91,5,145.8854541000328,None,145.8854541000328,None,145.8854541000328,None,right,1.1965443000080995,145.96751390001737,None,145.8854541000328,None,147.18642800004454,None,t,001,2022_Jan_22_1837,contrast,2021.2.3,60.16905097802823,
0.45,10,2,92,3,147.39776150003308,None,147.39776150003308,None,147.39776150003308,None,right,2.914732700039167,147.4809720000485,None,147.39776150003308,None,150.43068920000223,None,t,001,2022_Jan_22_1837,contrast,2021.2.3,60.16905097802823,
0.3,10,3,93,1,150.64508670003852,None,150.64508670003852,None,150.64508670003852,None,left,0.46768939995672554,150.7281177000259,None,150.64508670003852,None,151.21334800001932,None,t,001,2022_Jan_22_1837,contrast,2021.2.3,60.16905097802823,
0.5,10,4,94,4,151.42770840000594,None,151.42770840000594,None,151.42770840000594,None,right,0.7562115000328049,151.51089170004707,None,151.42770840000594,None,152.31008320004912,None,t,001,2022_Jan_22_1837,contrast,2021.2.3,60.16905097802823,
0.9,10,5,95,8,152.51079520001076,None,152.51079520001076,None,152.51079520001076,None,right,0.6994900000281632,152.59307330002775,None,152.51079520001076,None,153.31212400004733,None,t,001,2022_Jan_22_1837,contrast,2021.2.3,60.16905097802823,
0.4,10,6,96,2,153.5258967000409,None,153.5258967000409,None,153.5258967000409,None,right,1.0450035999529064,153.60893990000477,None,153.5258967000409,None,154.67699230002472,None,t,001,2022_Jan_22_1837,contrast,2021.2.3,60.16905097802823,
0.7,10,7,97,7,154.89140490000136,None,154.89140490000136,None,154.89140490000136,None,right,0.6046726999920793,154.97456510004122,None,154.89140490000136,None,155.60941180004738,None,t,001,2022_Jan_22_1837,contrast,2021.2.3,60.16905097802823,
0.6,10,8,98,6,155.82396810001228,None,155.82396810001228,None,155.82396810001228,None,right,0.7464084000093862,155.90678910003044,None,155.82396810001228,None,156.67582820000825,None,t,001,2022_Jan_22_1837,contrast,2021.2.3,60.16905097802823,
0.7,11,0,99,7,156.88986530003604,None,156.88986530003604,None,156.88986530003604,None,right,0.46266459999606013,156.97314050002024,None,156.88986530003604,None,157.45852159999777,None,t,001,2022_Jan_22_1837,contrast,2021.2.3,60.16905097802823,
0.4,11,1,100,2,157.6722649000003,None,157.6722649000003,None,157.6722649000003,None,left,1.5039877999806777,157.7551849000156,None,157.6722649000003,None,159.2892951000249,None,t,001,2022_Jan_22_1837,contrast,2021.2.3,60.16905097802823,
0.9,11,2,101,8,159.50418940000236,None,159.50418940000236,None,159.50418940000236,None,right,0.7128385999822058,159.586920700036,None,159.50418940000236,None,160.3241334000486,None,t,001,2022_Jan_22_1837,contrast,2021.2.3,60.16905097802823,
0.55,11,3,102,5,160.5363769000396,None,160.5363769000396,None,160.5363769000396,None,right,0.8168822000152431,160.61926860001404,None,160.5363769000396,None,161.4543027000036,None,t,001,2022_Jan_22_1837,contrast,2021.2.3,60.16905097802823,
0.45,11,4,103,3,161.66907210001955,None,161.66907210001955,None,161.66907210001955,None,left,0.7554649999947287,161.7516634000349,None,161.66907210001955,None,162.55103710002732,None,t,001,2022_Jan_22_1837,contrast,2021.2.3,60.16905097802823,
0.6,11,5,104,6,162.75107490003575,None,162.75107490003575,None,162.75107490003575,None,right,0.8585766000323929,162.83404010004597,None,162.75107490003575,None,163.71895090001635,None,t,001,2022_Jan_22_1837,contrast,2021.2.3,60.16905097802823,
0.1,11,6,105,0,163.93344480002997,None,163.93344480002997,None,163.93344480002997,None,left,0.644609400012996,164.00661730003776,None,163.93344480002997,None,164.66791890002787,None,t,001,2022_Jan_22_1837,contrast,2021.2.3,60.16905097802823,
0.5,11,7,106,4,164.8824683999992,None,164.8824683999992,None,164.8824683999992,None,right,0.9988841000013053,164.96548830001848,None,164.8824683999992,None,165.9836467000423,None,t,001,2022_Jan_22_1837,contrast,2021.2.3,60.16905097802823,
0.3,11,8,107,1,166.19918039999902,None,166.19918039999902,None,166.19918039999902,None,left,0.8019488999852911,166.28122840001015,None,166.19918039999902,None,167.1157803000533,None,t,001,2022_Jan_22_1837,contrast,2021.2.3,60.16905097802823,
0.5,12,0,108,4,167.33046730002388,None,167.33046730002388,None,167.33046730002388,None,right,2.837883000029251,167.41348930000095,None,167.33046730002388,None,170.27758370002266,None,t,001,2022_Jan_22_1837,contrast,2021.2.3,60.16905097802823,
0.45,12,1,109,3,170.4788191000116,None,170.4788191000116,None,170.4788191000116,None,right,2.39552919997368,170.5606462000287,None,170.4788191000116,None,172.9779180000187,None,t,001,2022_Jan_22_1837,contrast,2021.2.3,60.16905097802823,
0.55,12,2,110,5,173.19190390000585,None,173.19190390000585,None,173.19190390000585,None,right,0.6562458999687806,173.2749855000293,None,173.19190390000585,None,173.9599999000202,None,t,001,2022_Jan_22_1837,contrast,2021.2.3,60.16905097802823,
0.6,12,3,111,6,174.17438040004345,None,174.17438040004345,None,174.17438040004345,None,right,0.505530699971132,174.25758750003297,None,174.17438040004345,None,174.7922790000448,None,t,001,2022_Jan_22_1837,contrast,2021.2.3,60.16905097802823,
0.9,12,4,112,8,175.0073067000485,None,175.0073067000485,None,175.0073067000485,None,right,0.44275450002169237,175.0899757000152,None,175.0073067000485,None,175.56164110003738,None,t,001,2022_Jan_22_1837,contrast,2021.2.3,60.16905097802823,
0.3,12,5,113,1,175.77278840000508,None,175.77278840000508,None,175.77278840000508,None,left,0.7795417999732308,175.85628080001334,None,175.77278840000508,None,176.65811200003373,None,t,001,2022_Jan_22_1837,contrast,2021.2.3,60.16905097802823,
0.7,12,6,114,7,176.87233450001804,None,176.87233450001804,None,176.87233450001804,None,right,0.5782029000110924,176.95518230000744,None,176.87233450001804,None,177.55697600002168,None,t,001,2022_Jan_22_1837,contrast,2021.2.3,60.16905097802823,
0.4,12,7,115,2,177.7714171000407,None,177.7714171000407,None,177.7714171000407,None,right,1.0849010000238195,177.8544447000022,None,177.7714171000407,None,178.955662100052,None,t,001,2022_Jan_22_1837,contrast,2021.2.3,60.16905097802823,
0.1,12,8,116,0,179.1699793000007,None,179.1699793000007,None,179.1699793000007,None,left,0.5343410999630578,179.25310380000155,None,179.1699793000007,None,179.81943280005362,None,t,001,2022_Jan_22_1837,contrast,2021.2.3,60.16905097802823,
0.9,13,0,117,8,180.02016030001687,None,180.02016030001687,None,180.02016030001687,None,right,0.6462325999746099,180.10241750004934,None,180.02016030001687,None,180.77095950004878,None,t,001,2022_Jan_22_1837,contrast,2021.2.3,60.16905097802823,
0.3,13,1,118,1,180.98518390004756,None,180.98518390004756,None,180.98518390004756,None,right,0.8004163999576122,181.06818930001464,None,180.98518390004756,None,181.88634240004467,None,t,001,2022_Jan_22_1837,contrast,2021.2.3,60.16905097802823,
0.7,13,2,119,7,182.10086330003105,None,182.10086330003105,None,182.10086330003105,None,right,1.0772855000104755,182.18390160001582,None,182.10086330003105,None,183.285890500003,None,t,001,2022_Jan_22_1837,contrast,2021.2.3,60.16905097802823,
0.6,13,3,120,6,183.4999871000182,None,183.4999871000182,None,183.4999871000182,None,right,1.1004921999992803,183.58272740000393,None,183.4999871000182,None,184.700746800052,None,t,001,2022_Jan_22_1837,contrast,2021.2.3,60.16905097802823,
0.55,13,4,121,5,184.91536800004542,None,184.91536800004542,None,184.91536800004542,None,right,0.7570368000306189,184.9988016000134,None,184.91536800004542,None,185.78309250000166,None,t,001,2022_Jan_22_1837,contrast,2021.2.3,60.16905097802823,
0.5,13,5,122,4,185.99919030000456,None,185.99919030000456,None,185.99919030000456,None,right,0.4607959000277333,186.08052950003184,None,185.99919030000456,None,186.5660358000314,None,t,001,2022_Jan_22_1837,contrast,2021.2.3,60.16905097802823,
0.1,13,6,123,0,186.78007580002304,None,186.78007580002304,None,186.78007580002304,None,left,0.4942072000121698,186.86317040002905,None,186.78007580002304,None,187.38181610003812,None,t,001,2022_Jan_22_1837,contrast,2021.2.3,60.16905097802823,
0.4,13,7,124,2,187.59641970001394,None,187.59641970001394,None,187.59641970001394,None,left,6.125520100002177,187.67924340005266,None,187.59641970001394,None,193.82624419999775,None,t,001,2022_Jan_22_1837,contrast,2021.2.3,60.16905097802823,
0.45,13,8,125,3,194.04065020004055,None,194.04065020004055,None,194.04065020004055,None,right,0.9775471999892034,194.12336030002916,None,194.04065020004055,None,195.12642630003393,None,t,001,2022_Jan_22_1837,contrast,2021.2.3,60.16905097802823,
0.45,14,0,126,3,195.33925630000886,None,195.33925630000886,None,195.33925630000886,None,right,3.390670599997975,195.42254010000033,None,195.33925630000886,None,198.83870130003197,None,t,001,2022_Jan_22_1837,contrast,2021.2.3,60.16905097802823,
0.9,14,1,127,8,199.05298420001054,None,199.05298420001054,None,199.05298420001054,None,right,0.5553717999719083,199.13580460002413,None,199.05298420001054,None,199.72060810000403,None,t,001,2022_Jan_22_1837,contrast,2021.2.3,60.16905097802823,
0.3,14,2,128,1,199.9358043000102,None,199.9358043000102,None,199.9358043000102,None,left,1.3204058000119403,200.0188464000239,None,199.9358043000102,None,201.36919749999652,None,t,001,2022_Jan_22_1837,contrast,2021.2.3,60.16905097802823,
0.4,14,3,129,2,201.58403110003565,None,201.58403110003565,None,201.58403110003565,None,left,0.7135387000162154,201.6669569000369,None,201.58403110003565,None,202.40229030000046,None,t,001,2022_Jan_22_1837,contrast,2021.2.3,60.16905097802823,
0.5,14,4,130,4,202.61649600003147,None,202.61649600003147,None,202.61649600003147,None,right,2.0488971000304446,202.6996687000501,None,202.61649600003147,None,204.76654440001585,None,t,001,2022_Jan_22_1837,contrast,2021.2.3,60.16905097802823,
0.6,14,5,131,6,204.98100000002887,None,204.98100000002887,None,204.98100000002887,None,right,0.8193456999724731,205.06393240002217,None,204.98100000002887,None,205.91518609999912,None,t,001,2022_Jan_22_1837,contrast,2021.2.3,60.16905097802823,
0.7,14,6,132,7,206.13001449999865,None,206.13001449999865,None,206.13001449999865,None,right,0.40630570001667365,206.21291270002257,None,206.13001449999865,None,206.64756830001716,None,t,001,2022_Jan_22_1837,contrast,2021.2.3,60.16905097802823,
0.55,14,7,133,5,206.86240840004757,None,206.86240840004757,None,206.86240840004757,None,right,0.41163590003270656,206.94586520001758,None,206.86240840004757,None,207.38098110002466,None,t,001,2022_Jan_22_1837,contrast,2021.2.3,60.16905097802823,
0.1,14,8,134,0,207.59524610004155,None,207.59524610004155,None,207.59524610004155,None,left,0.5727188999881037,207.67846930003725,None,207.59524610004155,None,208.280131800042,None,t,001,2022_Jan_22_1837,contrast,2021.2.3,60.16905097802823,
0.45,15,0,135,3,208.4948027000064,None,208.4948027000064,None,208.4948027000064,None,right,0.6655558999627829,208.5777695000288,None,208.4948027000064,None,209.2769236000022,None,t,001,2022_Jan_22_1837,contrast,2021.2.3,60.16905097802823,
0.55,15,1,136,5,209.47730810003122,None,209.47730810003122,None,209.47730810003122,None,right,0.7871079999604262,209.56019560003188,None,209.47730810003122,None,210.3777772000176,None,t,001,2022_Jan_22_1837,contrast,2021.2.3,60.16905097802823,
0.6,15,2,137,6,210.59260700002778,None,210.59260700002778,None,210.59260700002778,None,right,0.5355234000016935,210.67570320004597,None,210.59260700002778,None,211.22742180002388,None,t,001,2022_Jan_22_1837,contrast,2021.2.3,60.16905097802823,
0.4,15,3,138,2,211.4417537000263,None,211.4417537000263,None,211.4417537000263,None,left,2.0703649000497535,211.52498750004452,None,211.4417537000263,None,213.62487490003696,None,t,001,2022_Jan_22_1837,contrast,2021.2.3,60.16905097802823,
0.7,15,4,139,7,213.8398730000481,None,213.8398730000481,None,213.8398730000481,None,right,1.2569299000315368,213.92286270001205,None,213.8398730000481,None,215.21341770002618,None,t,001,2022_Jan_22_1837,contrast,2021.2.3,60.16905097802823,
0.5,15,5,140,4,215.42548560001887,None,215.42548560001887,None,215.42548560001887,None,right,4.648246700002346,215.5070547000505,None,215.42548560001887,None,220.1860863000038,None,t,001,2022_Jan_22_1837,contrast,2021.2.3,60.16905097802823,
0.1,15,6,141,0,220.40056460001506,None,220.40056460001506,None,220.40056460001506,None,left,0.45538800000213087,220.4837838000385,None,220.40056460001506,None,220.96902290004073,None,t,001,2022_Jan_22_1837,contrast,2021.2.3,60.16905097802823,
0.9,15,7,142,8,221.18342240003403,None,221.18342240003403,None,221.18342240003403,None,right,0.746374599984847,221.26661140000215,None,221.18342240003403,None,222.03617440001108,None,t,001,2022_Jan_22_1837,contrast,2021.2.3,60.16905097802823,
0.3,15,8,143,1,222.24918480002088,None,222.24918480002088,None,222.24918480002088,None,left,1.0550197000266053,222.3322289000498,None,222.24918480002088,None,223.4173561000498,None,t,001,2022_Jan_22_1837,contrast,2021.2.3,60.16905097802823,
0.9,16,0,144,8,223.6313727000379,None,223.6313727000379,None,223.6313727000379,None,right,0.5846653000335209,223.71459690004122,None,223.6313727000379,None,224.31667180004297,None,t,001,2022_Jan_22_1837,contrast,2021.2.3,60.16905097802823,
0.6,16,1,145,6,224.53092200000538,None,224.53092200000538,None,224.53092200000538,None,right,1.1751349999685772,224.61356550001074,None,224.53092200000538,None,225.815139000013,None,t,001,2022_Jan_22_1837,contrast,2021.2.3,60.16905097802823,
0.1,16,2,146,0,226.0293838000507,None,226.0293838000507,None,226.0293838000507,None,left,0.5707527000340633,226.11253780004336,None,226.0293838000507,None,226.7141046000179,None,t,001,2022_Jan_22_1837,contrast,2021.2.3,60.16905097802823,
0.7,16,3,147,7,226.92850340000587,None,226.92850340000587,None,226.92850340000587,None,right,2.087610999995377,227.01167770003667,None,226.92850340000587,None,229.12880630005384,None,t,001,2022_Jan_22_1837,contrast,2021.2.3,60.16905097802823,
0.45,16,4,148,3,229.34430740005337,None,229.34430740005337,None,229.34430740005337,None,left,1.0809643999673426,229.4262128000264,None,229.34430740005337,None,230.5438492000103,None,t,001,2022_Jan_22_1837,contrast,2021.2.3,60.16905097802823,
0.55,16,5,149,5,230.75873650005087,None,230.75873650005087,None,230.75873650005087,None,right,2.0336535000242293,230.84151960001327,None,230.75873650005087,None,232.89239560003625,None,t,001,2022_Jan_22_1837,contrast,2021.2.3,60.16905097802823,
0.5,16,6,150,4,233.10650980001083,None,233.10650980001083,None,233.10650980001083,None,right,0.5676094000227749,233.18949570000404,None,233.10650980001083,None,233.77515330002643,None,t,001,2022_Jan_22_1837,contrast,2021.2.3,60.16905097802823,
0.3,16,7,151,1,233.9893542000209,None,233.9893542000209,None,233.9893542000209,None,left,0.59639729995979,234.07216229999904,None,233.9893542000209,None,234.6906650000019,None,t,001,2022_Jan_22_1837,contrast,2021.2.3,60.16905097802823,
0.4,16,8,152,2,234.904900500027,None,234.904900500027,None,234.904900500027,None,left,1.3774651000276208,234.98814730002778,None,234.904900500027,None,236.38944400002947,None,t,001,2022_Jan_22_1837,contrast,2021.2.3,60.16905097802823,
0.45,17,0,153,3,236.60328090004623,None,236.60328090004623,None,236.60328090004623,None,left,0.684643300017342,236.68650740000885,None,236.60328090004623,None,237.3901197000523,None,t,001,2022_Jan_22_1837,contrast,2021.2.3,60.16905097802823,
0.7,17,1,154,7,237.60248860000866,None,237.60248860000866,None,237.60248860000866,None,right,0.37385299999732524,237.68548680003732,None,237.60248860000866,None,238.08731620002072,None,t,001,2022_Jan_22_1837,contrast,2021.2.3,60.16905097802823,
0.1,17,2,155,0,238.30192600004375,None,238.30192600004375,None,238.30192600004375,None,left,0.7149779999745078,238.38507110002683,None,238.30192600004375,None,239.12063880002825,None,t,001,2022_Jan_22_1837,contrast,2021.2.3,60.16905097802823,
0.55,17,3,156,5,239.33439920004457,None,239.33439920004457,None,239.33439920004457,None,right,0.8173419000231661,239.41785170004005,None,239.33439920004457,None,240.25223090004874,None,t,001,2022_Jan_22_1837,contrast,2021.2.3,60.16905097802823,
0.5,17,4,157,4,240.46648930001538,None,240.46648930001538,None,240.46648930001538,None,right,1.0789910000166856,240.54980960005196,None,240.46648930001538,None,241.65092350001214,None,t,001,2022_Jan_22_1837,contrast,2021.2.3,60.16905097802823,
0.9,17,5,158,8,241.86522730003344,None,241.86522730003344,None,241.86522730003344,None,right,0.6387925000162795,241.948386700009,None,241.86522730003344,None,242.61638110002968,None,t,001,2022_Jan_22_1837,contrast,2021.2.3,60.16905097802823,
0.6,17,6,159,6,242.8312442000024,None,242.8312442000024,None,242.8312442000024,None,right,0.4888848999980837,242.91421770001762,None,242.8312442000024,None,243.43252190004569,None,t,001,2022_Jan_22_1837,contrast,2021.2.3,60.16905097802823,
0.3,17,7,160,1,243.6470554000116,None,243.6470554000116,None,243.6470554000116,None,left,0.5688366999966092,243.73038220003946,None,243.6470554000116,None,244.31525290000718,None,t,001,2022_Jan_22_1837,contrast,2021.2.3,60.16905097802823,
0.4,17,8,161,2,244.52982809999958,None,244.52982809999958,None,244.52982809999958,None,right,3.127253299986478,244.61306330002844,None,244.52982809999958,None,247.76237840001704,None,t,001,2022_Jan_22_1837,contrast,2021.2.3,60.16905097802823,
0.6,18,0,162,6,247.97683190001408,None,247.97683190001408,None,247.97683190001408,None,right,0.6235120999626815,248.0597438000259,None,247.97683190001408,None,248.71139800001401,None,t,001,2022_Jan_22_1837,contrast,2021.2.3,60.16905097802823,
0.7,18,1,163,7,248.9260172000504,None,248.9260172000504,None,248.9260172000504,None,right,0.4279900999972597,249.00921310001286,None,248.9260172000504,None,249.46130140003515,None,t,001,2022_Jan_22_1837,contrast,2021.2.3,60.16905097802823,
0.45,18,2,164,3,249.67551870003808,None,249.67551870003808,None,249.67551870003808,None,right,1.3421866999706253,249.7585253000143,None,249.67551870003808,None,251.12580660003005,None,t,001,2022_Jan_22_1837,contrast,2021.2.3,60.16905097802823,
0.5,18,3,165,4,251.34039320005104,None,251.34039320005104,None,251.34039320005104,None,right,0.508850899990648,251.42384150001453,None,251.34039320005104,None,251.95850970002357,None,t,001,2022_Jan_22_1837,contrast,2021.2.3,60.16905097802823,
0.55,18,4,166,5,252.17275920003885,None,252.17275920003885,None,252.17275920003885,None,right,0.6670038000447676,252.25627579999855,None,252.17275920003885,None,252.94099690002622,None,t,001,2022_Jan_22_1837,contrast,2021.2.3,60.16905097802823,
0.1,18,5,167,0,253.15550340001937,None,253.15550340001937,None,253.15550340001937,None,left,0.5812293000053614,253.23884040000848,None,253.15550340001937,None,253.84042480000062,None,t,001,2022_Jan_22_1837,contrast,2021.2.3,60.16905097802823,
0.3,18,6,168,1,254.05473890004214,None,254.05473890004214,None,254.05473890004214,None,left,1.169383900007233,254.13783190003596,None,254.05473890004214,None,255.33920410001883,None,t,001,2022_Jan_22_1837,contrast,2021.2.3,60.16905097802823,
0.9,18,7,169,8,255.55323910003062,None,255.55323910003062,None,255.55323910003062,None,right,0.5672114999615587,255.6367076000315,None,255.55323910003062,None,256.2215160000487,None,t,001,2022_Jan_22_1837,contrast,2021.2.3,60.16905097802823,
0.4,18,8,170,2,256.43594650004525,None,256.43594650004525,None,256.43594650004525,None,left,0.7102574000018649,256.5191202000133,None,256.43594650004525,None,257.25395290000597,None,t,001,2022_Jan_22_1837,contrast,2021.2.3,60.16905097802823,
0.4,19,0,171,2,257.46811910002725,None,257.46811910002725,None,257.46811910002725,None,right,0.34837590000825003,257.55166360002477,None,257.46811910002725,None,257.9201540000504,None,t,001,2022_Jan_22_1837,contrast,2021.2.3,60.16905097802823,
0.3,19,1,172,1,258.13437970000086,None,258.13437970000086,None,258.13437970000086,None,left,0.7696666999836452,258.2175780000398,None,258.13437970000086,None,259.01899680000497,None,t,001,2022_Jan_22_1837,contrast,2021.2.3,60.16905097802823,
0.1,19,2,173,0,259.2336421000073,None,259.2336421000073,None,259.2336421000073,None,left,0.712330500013195,259.31663660000777,None,259.2336421000073,None,260.0542029000353,None,t,001,2022_Jan_22_1837,contrast,2021.2.3,60.16905097802823,
0.45,19,3,174,3,260.26629190001404,None,260.26629190001404,None,260.26629190001404,None,right,1.1019098999677226,260.34932540002046,None,260.26629190001404,None,261.4836035000044,None,t,001,2022_Jan_22_1837,contrast,2021.2.3,60.16905097802823,
0.7,19,4,175,7,261.6979446000187,None,261.6979446000187,None,261.6979446000187,None,right,0.6956596999661997,261.78113550000126,None,261.6979446000187,None,262.49941390001914,None,t,001,2022_Jan_22_1837,contrast,2021.2.3,60.16905097802823,
0.9,19,5,176,8,262.7141975000268,None,262.7141975000268,None,262.7141975000268,None,right,0.6063555000000633,262.7968199000461,None,262.7141975000268,None,263.4318295000121,None,t,001,2022_Jan_22_1837,contrast,2021.2.3,60.16905097802823,
0.6,19,6,177,6,263.64642840001034,None,263.64642840001034,None,263.64642840001034,None,right,0.5538607999915257,263.72944230004214,None,263.64642840001034,None,264.31280150002567,None,t,001,2022_Jan_22_1837,contrast,2021.2.3,60.16905097802823,
0.55,19,7,178,5,264.5123915000004,None,264.5123915000004,None,264.5123915000004,None,right,0.5198254000279121,264.5953459000448,None,264.5123915000004,None,265.1469345000223,None,t,001,2022_Jan_22_1837,contrast,2021.2.3,60.16905097802823,
0.5,19,8,179,4,265.36159790004604,None,265.36159790004604,None,265.36159790004604,None,right,0.40636930003529415,265.4447143000434,None,265.36159790004604,None,265.879751200031,None,t,001,2022_Jan_22_1837,contrast,2021.2.3,60.16905097802823,
0.5,20,0,180,4,266.09397600003285,None,266.09397600003285,None,266.09397600003285,None,right,0.48982710001291707,266.17728950001765,None,266.09397600003285,None,266.6951053000521,None,t,001,2022_Jan_22_1837,contrast,2021.2.3,60.16905097802823,
0.3,20,1,181,1,266.91029040003195,None,266.91029040003195,None,266.91029040003195,None,left,0.7299144999706186,266.99345150002046,None,266.91029040003195,None,267.7447241000482,None,t,001,2022_Jan_22_1837,contrast,2021.2.3,60.16905097802823,
0.6,20,2,182,6,267.9593282000278,None,267.9593282000278,None,267.9593282000278,None,right,0.5620466999826021,268.0425299000344,None,267.9593282000278,None,268.62753640004667,None,t,001,2022_Jan_22_1837,contrast,2021.2.3,60.16905097802823,
0.9,20,3,183,8,268.8417927999981,None,268.8417927999981,None,268.8417927999981,None,right,0.8781181999947876,268.92509210004937,None,268.8417927999981,None,269.82412910001585,None,t,001,2022_Jan_22_1837,contrast,2021.2.3,60.16905097802823,
0.55,20,4,184,5,270.0242201000219,None,270.0242201000219,None,270.0242201000219,None,right,1.7772461000131443,270.1074113000068,None,270.0242201000219,None,271.90797580004437,None,t,001,2022_Jan_22_1837,contrast,2021.2.3,60.16905097802823,
0.7,20,5,185,7,272.12206930003595,None,272.12206930003595,None,272.12206930003595,None,right,0.6538996000308543,272.20540500001516,None,272.12206930003595,None,272.88990660000127,None,t,001,2022_Jan_22_1837,contrast,2021.2.3,60.16905097802823,
0.45,20,6,186,3,273.10463050002,None,273.10463050002,None,273.10463050002,None,left,0.9514325999771245,273.18786360003287,None,273.10463050002,None,274.1560081000207,None,t,001,2022_Jan_22_1837,contrast,2021.2.3,60.16905097802823,
0.1,20,7,187,0,274.37260620004963,None,274.37260620004963,None,274.37260620004963,None,left,0.46981049998430535,274.4535129000433,None,274.37260620004963,None,274.9556709000026,None,t,001,2022_Jan_22_1837,contrast,2021.2.3,60.16905097802823,
0.4,20,8,188,2,275.1698236000375,None,275.1698236000375,None,275.1698236000375,None,left,1.1766694000107236,275.2531580000068,None,275.1698236000375,None,276.4540451000212,None,t,001,2022_Jan_22_1837,contrast,2021.2.3,60.16905097802823,
0.9,21,0,189,8,276.66851400001906,None,276.66851400001906,None,276.66851400001906,None,right,0.5558393999817781,276.7514331000275,None,276.66851400001906,None,277.3368694000528,None,t,001,2022_Jan_22_1837,contrast,2021.2.3,60.16905097802823,
0.1,21,1,190,0,277.5509173000464,None,277.5509173000464,None,277.5509173000464,None,left,0.6666961000300944,277.63404130004346,None,277.5509173000464,None,278.31941820000065,None,t,001,2022_Jan_22_1837,contrast,2021.2.3,60.16905097802823,
0.5,21,2,191,4,278.51907810004195,None,278.51907810004195,None,278.51907810004195,None,left,1.2512731999740936,278.6001061000279,None,278.51907810004195,None,279.86778060003417,None,t,001,2022_Jan_22_1837,contrast,2021.2.3,60.16905097802823,
0.55,21,3,192,5,280.08222730003763,None,280.08222730003763,None,280.08222730003763,None,right,0.37451659998623654,280.16532080003526,None,280.08222730003763,None,280.56953880004585,None,t,001,2022_Jan_22_1837,contrast,2021.2.3,60.16905097802823,
0.3,21,4,193,1,280.7818303000531,None,280.7818303000531,None,280.7818303000531,None,right,0.4445221000351012,280.8647935000481,None,280.7818303000531,None,281.3343337000115,None,t,001,2022_Jan_22_1837,contrast,2021.2.3,60.16905097802823,
0.4,21,5,194,2,281.5476098000072,None,281.5476098000072,None,281.5476098000072,None,right,1.8367138000321575,281.6305559000466,None,281.5476098000072,None,283.50050460000057,None,t,001,2022_Jan_22_1837,contrast,2021.2.3,60.16905097802823,
0.45,21,6,195,3,283.71233370003756,None,283.71233370003756,None,283.71233370003756,None,left,0.5679403000394814,283.7952836000477,None,283.71233370003756,None,284.3808552999981,None,t,001,2022_Jan_22_1837,contrast,2021.2.3,60.16905097802823,
0.7,21,7,196,7,284.59488129999954,None,284.59488129999954,None,284.59488129999954,None,right,0.5343304999987595,284.67783980001695,None,284.59488129999954,None,285.2297995000263,None,t,001,2022_Jan_22_1837,contrast,2021.2.3,60.16905097802823,
0.6,21,8,197,6,285.44420240004547,None,285.44420240004547,None,285.44420240004547,None,right,0.916319299954921,285.52737180003896,None,285.44420240004547,None,286.46189520001644,None,t,001,2022_Jan_22_1837,contrast,2021.2.3,60.16905097802823,
0.3,22,0,198,1,286.6763761000475,None,286.6763761000475,None,286.6763761000475,None,left,0.6932932999916375,286.7594344000099,None,286.6763761000475,None,287.4781588000478,None,t,001,2022_Jan_22_1837,contrast,2021.2.3,60.16905097802823,
0.6,22,1,199,6,287.69224410003517,None,287.69224410003517,None,287.69224410003517,None,right,0.6522035000380129,287.7751391000347,None,287.69224410003517,None,288.44357170001604,None,t,001,2022_Jan_22_1837,contrast,2021.2.3,60.16905097802823,
0.1,22,2,200,0,288.65796209999826,None,288.65796209999826,None,288.65796209999826,None,left,0.5823694000137039,288.74104020005325,None,288.65796209999826,None,289.35726140002953,None,t,001,2022_Jan_22_1837,contrast,2021.2.3,60.16905097802823,
0.5,22,3,201,4,289.55762289999984,None,289.55762289999984,None,289.55762289999984,None,right,1.892714400019031,289.640143800003,None,289.55762289999984,None,291.5551359000383,None,t,001,2022_Jan_22_1837,contrast,2021.2.3,60.16905097802823,
0.4,22,4,202,2,291.75591130001703,None,291.75591130001703,None,291.75591130001703,None,right,2.0452846999978647,291.83825250004884,None,291.75591130001703,None,293.9059551000246,None,t,001,2022_Jan_22_1837,contrast,2021.2.3,60.16905097802823,
0.45,22,5,203,3,294.119880800019,None,294.119880800019,None,294.119880800019,None,right,2.080272299994249,294.20288450003136,None,294.119880800019,None,296.31973460002337,None,t,001,2022_Jan_22_1837,contrast,2021.2.3,60.16905097802823,
0.9,22,6,204,8,296.5345504000434,None,296.5345504000434,None,296.5345504000434,None,right,0.8176182000315748,296.6175859000068,None,296.5345504000434,None,297.4522590000415,None,t,001,2022_Jan_22_1837,contrast,2021.2.3,60.16905097802823,
0.55,22,7,205,5,297.6667276000371,None,297.6667276000371,None,297.6667276000371,None,right,0.7893441999913193,297.7497892000247,None,297.6667276000371,None,298.57114730001194,None,t,001,2022_Jan_22_1837,contrast,2021.2.3,60.16905097802823,
0.7,22,8,206,7,298.78226150001865,None,298.78226150001865,None,298.78226150001865,None,right,0.6014956000144593,298.8656673000078,None,298.78226150001865,None,299.48408120003296,None,t,001,2022_Jan_22_1837,contrast,2021.2.3,60.16905097802823,
0.9,23,0,207,8,299.6981295000296,None,299.6981295000296,None,299.6981295000296,None,right,0.4698385000228882,299.7813962000073,None,299.6981295000296,None,300.2977257000166,None,t,001,2022_Jan_22_1837,contrast,2021.2.3,60.16905097802823,
0.4,23,1,208,2,300.4983179999981,None,300.4983179999981,None,300.4983179999981,None,left,1.318727099976968,300.5806276000221,None,300.4983179999981,None,301.9316671999986,None,t,001,2022_Jan_22_1837,contrast,2021.2.3,60.16905097802823,
0.5,23,2,209,4,302.1462940000347,None,302.1462940000347,None,302.1462940000347,None,left,0.8058786999899894,302.22935740003595,None,302.1462940000347,None,303.0642389000277,None,t,001,2022_Jan_22_1837,contrast,2021.2.3,60.16905097802823,
0.3,23,3,210,1,303.27855090005323,None,303.27855090005323,None,303.27855090005323,None,left,0.5374896999564953,303.36178340000333,None,303.27855090005323,None,303.9305410000379,None,t,001,2022_Jan_22_1837,contrast,2021.2.3,60.16905097802823,
0.55,23,4,211,5,304.1446510000387,None,304.1446510000387,None,304.1446510000387,None,right,0.8876660999958403,304.2275143000297,None,304.1446510000387,None,305.1455247999984,None,t,001,2022_Jan_22_1837,contrast,2021.2.3,60.16905097802823,
0.45,23,5,212,3,305.36040180001874,None,305.36040180001874,None,305.36040180001874,None,right,0.5528820999898016,305.44302580005024,None,305.36040180001874,None,306.03176660003373,None,t,001,2022_Jan_22_1837,contrast,2021.2.3,60.16905097802823,
0.1,23,6,213,0,306.24289080000017,None,306.24289080000017,None,306.24289080000017,None,left,0.4535320000140928,306.3257279000245,None,306.24289080000017,None,306.8107624000404,None,t,001,2022_Jan_22_1837,contrast,2021.2.3,60.16905097802823,
0.7,23,7,214,7,307.0256041000248,None,307.0256041000248,None,307.0256041000248,None,right,0.7283936999738216,307.1082103000372,None,307.0256041000248,None,307.86152770003537,None,t,001,2022_Jan_22_1837,contrast,2021.2.3,60.16905097802823,
0.6,23,8,215,6,308.07449810003163,None,308.07449810003163,None,308.07449810003163,None,right,0.9599164000246674,308.157637300028,None,308.07449810003163,None,309.14224810001906,None,t,001,2022_Jan_22_1837,contrast,2021.2.3,60.16905097802823,
0.9,24,0,216,8,309.3566079000011,None,309.3566079000011,None,309.3566079000011,None,right,0.47763199999462813,309.4396756000351,None,309.3566079000011,None,309.9419090000447,None,t,001,2022_Jan_22_1837,contrast,2021.2.3,60.16905097802823,
0.3,24,1,217,1,310.15599010000005,None,310.15599010000005,None,310.15599010000005,None,left,1.2767975000315346,310.238884600054,None,310.15599010000005,None,311.5380615000031,None,t,001,2022_Jan_22_1837,contrast,2021.2.3,60.16905097802823,
0.55,24,2,218,5,311.73906069999794,None,311.73906069999794,None,311.73906069999794,None,left,0.7344087999663316,311.82104850001633,None,311.73906069999794,None,312.5871056000469,None,t,001,2022_Jan_22_1837,contrast,2021.2.3,60.16905097802823,
0.7,24,3,219,7,312.7869568000315,None,312.7869568000315,None,312.7869568000315,None,right,0.3112992999958806,312.8700281000347,None,312.7869568000315,None,313.20514730003197,None,t,001,2022_Jan_22_1837,contrast,2021.2.3,60.16905097802823,
0.45,24,4,220,3,313.41962550004246,None,313.41962550004246,None,313.41962550004246,None,right,0.8136900999816135,313.5027803000412,None,313.41962550004246,None,314.337724800047,None,t,001,2022_Jan_22_1837,contrast,2021.2.3,60.16905097802823,
0.6,24,5,221,6,314.5520456000231,None,314.5520456000231,None,314.5520456000231,None,right,0.7200487999944016,314.635239300027,None,314.5520456000231,None,315.38697370002046,None,t,001,2022_Jan_22_1837,contrast,2021.2.3,60.16905097802823,
0.5,24,6,222,4,315.60117150004953,None,315.60117150004953,None,315.60117150004953,None,right,0.6952167999697849,315.685157000029,None,315.60117150004953,None,316.40302620001603,None,t,001,2022_Jan_22_1837,contrast,2021.2.3,60.16905097802823,
0.4,24,7,223,2,316.6171997000347,None,316.6171997000347,None,316.6171997000347,None,right,0.4950834000483155,316.70017820002977,None,316.6171997000347,None,317.21647360001225,None,t,001,2022_Jan_22_1837,contrast,2021.2.3,60.16905097802823,
0.1,24,8,224,0,317.4170233000186,None,317.4170233000186,None,317.4170233000186,None,left,0.46480509999673814,317.4992442000075,None,317.4170233000186,None,317.984642000054,None,t,001,2022_Jan_22_1837,contrast,2021.2.3,60.16905097802823,
0.7,25,0,225,7,318.19882950000465,None,318.19882950000465,None,318.19882950000465,None,right,0.6735584000125527,318.2818608000525,None,318.19882950000465,None,318.9835727000027,None,t,001,2022_Jan_22_1837,contrast,2021.2.3,60.16905097802823,
0.3,25,1,226,1,319.19817000004696,None,319.19817000004696,None,319.19817000004696,None,left,1.6277257000328973,319.2810601000092,None,319.19817000004696,None,320.9337832000456,None,t,001,2022_Jan_22_1837,contrast,2021.2.3,60.16905097802823,
0.9,25,2,227,8,321.14648170000874,None,321.14648170000874,None,321.14648170000874,None,right,0.5437202000175603,321.2293156000087,None,321.14648170000874,None,321.7983172000386,None,t,001,2022_Jan_22_1837,contrast,2021.2.3,60.16905097802823,
0.55,25,3,228,5,322.01321070000995,None,322.01321070000995,None,322.01321070000995,None,right,1.2774044000543654,322.0954772999976,None,322.01321070000995,None,323.3966277000145,None,t,001,2022_Jan_22_1837,contrast,2021.2.3,60.16905097802823,
0.5,25,4,229,4,323.61088580003707,None,323.61088580003707,None,323.61088580003707,None,right,0.3821359000285156,323.69399930001236,None,323.61088580003707,None,324.0958959000418,None,t,001,2022_Jan_22_1837,contrast,2021.2.3,60.16905097802823,
0.4,25,5,230,2,324.3102845000103,None,324.3102845000103,None,324.3102845000103,None,right,1.8600450999801978,324.3932821000344,None,324.3102845000103,None,326.27776399999857,None,t,001,2022_Jan_22_1837,contrast,2021.2.3,60.16905097802823,
0.6,25,6,231,6,326.4919265000499,None,326.4919265000499,None,326.4919265000499,None,right,0.5420930999680422,326.5746661000303,None,326.4919265000499,None,327.1438880000496,None,t,001,2022_Jan_22_1837,contrast,2021.2.3,60.16905097802823,
0.45,25,7,232,3,327.3579385000048,None,327.3579385000048,None,327.3579385000048,None,left,1.1797651999513619,327.4409132000292,None,327.3579385000048,None,328.64226829999825,None,t,001,2022_Jan_22_1837,contrast,2021.2.3,60.16905097802823,
0.1,25,8,233,0,328.85635140002705,None,328.85635140002705,None,328.85635140002705,None,left,0.4966497999848798,328.939341600053,None,328.85635140002705,None,329.45792890002485,None,t,001,2022_Jan_22_1837,contrast,2021.2.3,60.16905097802823,
0.4,26,0,234,2,329.6722434000112,None,329.6722434000112,None,329.6722434000112,None,left,0.6397836999967694,329.75562770001125,None,329.6722434000112,None,330.4239984000451,None,t,001,2022_Jan_22_1837,contrast,2021.2.3,60.16905097802823,
0.1,26,1,235,0,330.6380194000085,None,330.6380194000085,None,330.6380194000085,None,left,0.6184366999659687,330.7208909000037,None,330.6380194000085,None,331.3565619000001,None,t,001,2022_Jan_22_1837,contrast,2021.2.3,60.16905097802823,
0.3,26,2,236,1,331.5707942000008,None,331.5707942000008,None,331.5707942000008,None,right,1.653609199973289,331.65352390002226,None,331.5707942000008,None,333.33746470004553,None,t,001,2022_Jan_22_1837,contrast,2021.2.3,60.16905097802823,
0.9,26,3,237,8,333.5521953999996,None,333.5521953999996,None,333.5521953999996,None,right,0.6973507999791764,333.63504780002404,None,333.5521953999996,None,334.35358720005024,None,t,001,2022_Jan_22_1837,contrast,2021.2.3,60.16905097802823,
0.45,26,4,238,3,334.56784980004886,None,334.56784980004886,None,334.56784980004886,None,right,0.6723782000481151,334.6509309000103,None,334.56784980004886,None,335.3538818000234,None,t,001,2022_Jan_22_1837,contrast,2021.2.3,60.16905097802823,
0.6,26,5,239,6,335.567007500038,None,335.567007500038,None,335.567007500038,None,right,0.5209657999803312,335.6503557000542,None,335.567007500038,None,336.19968250003876,None,t,001,2022_Jan_22_1837,contrast,2021.2.3,60.16905097802823,
0.55,26,6,240,5,336.400724600011,None,336.400724600011,None,336.400724600011,None,right,0.4882977000088431,336.4829272000352,None,336.400724600011,None,337.0013117000344,None,t,001,2022_Jan_22_1837,contrast,2021.2.3,60.16905097802823,
0.5,26,7,241,4,337.2156451000483,None,337.2156451000483,None,337.2156451000483,None,right,0.536244299961254,337.29914670001017,None,337.2156451000483,None,337.8678828999982,None,t,001,2022_Jan_22_1837,contrast,2021.2.3,60.16905097802823,
0.7,26,8,242,7,338.0816656000097,None,338.0816656000097,None,338.0816656000097,None,right,0.31201699998928234,338.1645270000445,None,338.0816656000097,None,338.5014915000065,None,t,001,2022_Jan_22_1837,contrast,2021.2.3,60.16905097802823,
0.5,27,0,243,4,338.7143503000261,None,338.7143503000261,None,338.7143503000261,None,right,0.8631963999941945,338.79751780000515,None,338.7143503000261,None,339.68221930001164,None,t,001,2022_Jan_22_1837,contrast,2021.2.3,60.16905097802823,
0.1,27,1,244,0,339.8966001000372,None,339.8966001000372,None,339.8966001000372,None,left,0.4168982999981381,339.9800171000534,None,339.8966001000372,None,340.41499740001746,None,t,001,2022_Jan_22_1837,contrast,2021.2.3,60.16905097802823,
0.55,27,2,245,5,340.62934750004206,None,340.62934750004206,None,340.62934750004206,None,right,1.315914899983909,340.7125883999979,None,340.62934750004206,None,342.049134800036,None,t,001,2022_Jan_22_1837,contrast,2021.2.3,60.16905097802823,
0.7,27,3,246,7,342.2615151000209,None,342.2615151000209,None,342.2615151000209,None,right,0.6763396000023931,342.34455190005247,None,342.2615151000209,None,343.04832270002225,None,t,001,2022_Jan_22_1837,contrast,2021.2.3,60.16905097802823,
0.45,27,4,247,3,343.26036940002814,None,343.26036940002814,None,343.26036940002814,None,right,2.219633699976839,343.3436193000525,None,343.26036940002814,None,345.59363470005337,None,t,001,2022_Jan_22_1837,contrast,2021.2.3,60.16905097802823,
0.3,27,5,248,1,345.808324200043,None,345.808324200043,None,345.808324200043,None,left,0.6630769000039436,345.8922076000017,None,345.808324200043,None,346.59260610002093,None,t,001,2022_Jan_22_1837,contrast,2021.2.3,60.16905097802823,
0.4,27,6,249,2,346.80760870000813,None,346.80760870000813,None,346.80760870000813,None,left,0.6264231000095606,346.89047590002883,None,346.80760870000813,None,347.54522450000513,None,t,001,2022_Jan_22_1837,contrast,2021.2.3,60.16905097802823,
0.6,27,7,250,6,347.75686130003305,None,347.75686130003305,None,347.75686130003305,None,right,0.5558506999514066,347.83950440003537,None,347.75686130003305,None,348.4245528000174,None,t,001,2022_Jan_22_1837,contrast,2021.2.3,60.16905097802823,
0.9,27,8,251,8,348.6393947000033,None,348.6393947000033,None,348.6393947000033,None,right,0.5692268999991938,348.72208980005234,None,348.6393947000033,None,349.32363800000167,None,t,001,2022_Jan_22_1837,contrast,2021.2.3,60.16905097802823,
0.6,28,0,252,6,349.5383539000177,None,349.5383539000177,None,349.5383539000177,None,right,1.3818218000233173,349.6213281000382,None,349.5383539000177,None,351.0390038000187,None,t,001,2022_Jan_22_1837,contrast,2021.2.3,60.16905097802823,
0.9,28,1,253,8,351.2533448000322,None,351.2533448000322,None,351.2533448000322,None,right,0.450658600020688,351.33653680002317,None,351.2533448000322,None,351.8049274000223,None,t,001,2022_Jan_22_1837,contrast,2021.2.3,60.16905097802823,
0.3,28,2,254,1,352.00625610002317,None,352.00625610002317,None,352.00625610002317,None,left,1.269311200012453,352.0859360000468,None,352.00625610002317,None,353.38651500002015,None,t,001,2022_Jan_22_1837,contrast,2021.2.3,60.16905097802823,
0.4,28,3,255,2,353.6039265000145,None,353.6039265000145,None,353.6039265000145,None,left,0.5029825000092387,353.6844033000525,None,353.6039265000145,None,354.2192631000071,None,t,001,2022_Jan_22_1837,contrast,2021.2.3,60.16905097802823,
0.1,28,4,256,0,354.43394340004306,None,354.43394340004306,None,354.43394340004306,None,left,3.0318230999982916,354.51693530002376,None,354.43394340004306,None,357.56708629999775,None,t,001,2022_Jan_22_1837,contrast,2021.2.3,60.16905097802823,
0.55,28,5,257,5,357.78102660004515,None,357.78102660004515,None,357.78102660004515,None,right,0.8034209999605082,357.86394260003,None,357.78102660004515,None,358.69894900004147,None,t,001,2022_Jan_22_1837,contrast,2021.2.3,60.16905097802823,
0.5,28,6,258,4,358.9135226000217,None,358.9135226000217,None,358.9135226000217,None,right,0.4870095999795012,358.99640770000406,None,358.9135226000217,None,359.51496850000694,None,t,001,2022_Jan_22_1837,contrast,2021.2.3,60.16905097802823,
0.45,28,7,259,3,359.72934290004196,None,359.72934290004196,None,359.72934290004196,None,right,0.8225574999814853,359.81256970000686,None,359.72934290004196,None,360.6646933000302,None,t,001,2022_Jan_22_1837,contrast,2021.2.3,60.16905097802823,
0.7,28,8,260,7,360.87830969999777,None,360.87830969999777,None,360.87830969999777,None,right,0.5701681000064127,360.96125330001814,None,360.87830969999777,None,361.56287350005005,None,t,001,2022_Jan_22_1837,contrast,2021.2.3,60.16905097802823,
0.1,29,0,261,0,361.7775124000036,None,361.7775124000036,None,361.7775124000036,None,left,0.6153202999848872,361.8607621000265,None,361.7775124000036,None,362.496090700035,None,t,001,2022_Jan_22_1837,contrast,2021.2.3,60.16905097802823,
0.6,29,1,262,6,362.7102610000293,None,362.7102610000293,None,362.7102610000293,None,right,0.5625451000523753,362.7931462000124,None,362.7102610000293,None,363.3926459000213,None,t,001,2022_Jan_22_1837,contrast,2021.2.3,60.16905097802823,
0.5,29,2,263,4,363.5937554000411,None,363.5937554000411,None,363.5937554000411,None,right,0.7673471000161953,363.6759718999965,None,363.5937554000411,None,364.46040360000916,None,t,001,2022_Jan_22_1837,contrast,2021.2.3,60.16905097802823,
0.3,29,3,264,1,364.67502230004175,None,364.67502230004175,None,364.67502230004175,None,right,2.8851846999605186,364.75811300001806,None,364.67502230004175,None,367.67479100002674,None,t,001,2022_Jan_22_1837,contrast,2021.2.3,60.16905097802823,
0.7,29,4,265,7,367.8892043000087,None,367.8892043000087,None,367.8892043000087,None,right,0.4551266999915242,367.9720307000098,None,367.8892043000087,None,368.4576168000349,None,t,001,2022_Jan_22_1837,contrast,2021.2.3,60.16905097802823,
0.45,29,5,266,3,368.6718955000397,None,368.6718955000397,None,368.6718955000397,None,right,0.378625999961514,368.7547063000384,None,368.6718955000397,None,369.15637920005247,None,t,001,2022_Jan_22_1837,contrast,2021.2.3,60.16905097802823,
0.55,29,6,267,5,369.3708143000258,None,369.3708143000258,None,369.3708143000258,None,right,0.44663199997739866,369.454008300032,None,369.3708143000258,None,369.9224734000163,None,t,001,2022_Jan_22_1837,contrast,2021.2.3,60.16905097802823,
0.9,29,7,268,8,370.13685270003043,None,370.13685270003043,None,370.13685270003043,None,right,0.5613122999784537,370.2198855000315,None,370.13685270003043,None,370.80477740004426,None,t,001,2022_Jan_22_1837,contrast,2021.2.3,60.16905097802823,
0.4,29,8,269,2,371.01956060004886,None,371.01956060004886,None,371.01956060004886,None,right,1.3887793000321835,371.1024626000435,None,371.01956060004886,None,372.5200159000233,None,t,001,2022_Jan_22_1837,contrast,2021.2.3,60.16905097802823,
