rgb_luminance,trials.thisRepN,trials.thisTrialN,trials.thisN,trials.thisIndex,patch_background.started,patch_background.stopped,patch_foreground.started,patch_foreground.stopped,patch_test.started,patch_test.stopped,key_response.keys,key_response.rt,key_response.started,key_response.stopped,text_task.started,text_task.stopped,text.started,text.stopped,participant,session,date,expName,psychopyVersion,frameRate,
0.9,0,0,0,8,19.723166300042067,None,19.723166300042067,None,19.723166300042067,None,right,8.786388400010765,19.798230000014883,None,19.723166300042067,None,28.613686299999245,None,t_rgb,001,2022_Jan_22_1902,contrast,2021.2.3,59.967641451637995,
0.55,0,1,1,5,28.82432080002036,None,28.82432080002036,None,28.82432080002036,None,right,2.4770131999976,28.907201300025918,None,28.82432080002036,None,31.407651800021995,None,t_rgb,001,2022_Jan_22_1902,contrast,2021.2.3,59.967641451637995,
0.45,0,2,2,3,31.621300900005735,None,31.621300900005735,None,31.621300900005735,None,left,1.199790699989535,31.704578900011256,None,31.621300900005735,None,32.92279189999681,None,t_rgb,001,2022_Jan_22_1902,contrast,2021.2.3,59.967641451637995,
0.7,0,3,3,7,33.136873200011905,None,33.136873200011905,None,33.136873200011905,None,right,0.5469569999841042,33.22022100002505,None,33.136873200011905,None,33.80291630001739,None,t_rgb,001,2022_Jan_22_1902,contrast,2021.2.3,59.967641451637995,
0.3,0,4,4,1,34.00300780002726,None,34.00300780002726,None,34.00300780002726,None,left,0.8645471999770962,34.08638570003677,None,34.00300780002726,None,34.9852155999979,None,t_rgb,001,2022_Jan_22_1902,contrast,2021.2.3,59.967641451637995,
0.4,0,5,5,2,35.184840100002475,None,35.184840100002475,None,35.184840100002475,None,right,1.42687109997496,35.269604600034654,None,35.184840100002475,None,36.71941880002851,None,t_rgb,001,2022_Jan_22_1902,contrast,2021.2.3,59.967641451637995,
0.6,0,6,6,6,36.933393999992404,None,36.933393999992404,None,36.933393999992404,None,right,0.8793412999948487,37.01694550004322,None,36.933393999992404,None,37.918454300030135,None,t_rgb,001,2022_Jan_22_1902,contrast,2021.2.3,59.967641451637995,
0.1,0,7,7,0,38.13265640003374,None,38.13265640003374,None,38.13265640003374,None,left,0.7030863999971189,38.215919900045265,None,38.13265640003374,None,38.965422000037506,None,t_rgb,001,2022_Jan_22_1902,contrast,2021.2.3,59.967641451637995,
0.5,0,8,8,4,39.165092700044625,None,39.165092700044625,None,39.165092700044625,None,left,1.7029391000396572,39.24818850000156,None,39.165092700044625,None,40.98192970000673,None,t_rgb,001,2022_Jan_22_1902,contrast,2021.2.3,59.967641451637995,
0.7,1,0,9,7,41.197615600016434,None,41.197615600016434,None,41.197615600016434,None,right,0.5354301999905147,41.27967920002993,None,41.197615600016434,None,41.83137249998981,None,t_rgb,001,2022_Jan_22_1902,contrast,2021.2.3,59.967641451637995,
0.55,1,1,10,5,42.04578360001324,None,42.04578360001324,None,42.04578360001324,None,right,0.6145226999651641,42.129092500021216,None,42.04578360001324,None,42.764376800041646,None,t_rgb,001,2022_Jan_22_1902,contrast,2021.2.3,59.967641451637995,
0.6,1,2,11,6,42.97813810000662,None,42.97813810000662,None,42.97813810000662,None,right,0.5788842000183649,43.06136059999699,None,42.97813810000662,None,43.66584969998803,None,t_rgb,001,2022_Jan_22_1902,contrast,2021.2.3,59.967641451637995,
0.3,1,3,12,1,43.87761660001706,None,43.87761660001706,None,43.87761660001706,None,left,1.2303097999538295,43.96063630003482,None,43.87761660001706,None,45.228482500009704,None,t_rgb,001,2022_Jan_22_1902,contrast,2021.2.3,59.967641451637995,
0.45,1,4,13,3,45.44274740002584,None,45.44274740002584,None,45.44274740002584,None,left,2.4653810000163503,45.52619770000456,None,45.44274740002584,None,48.01175250002416,None,t_rgb,001,2022_Jan_22_1902,contrast,2021.2.3,59.967641451637995,
0.5,1,5,14,4,48.224031599995214,None,48.224031599995214,None,48.224031599995214,None,right,1.9262511999695562,48.30673810001463,None,48.224031599995214,None,50.2578847000259,None,t_rgb,001,2022_Jan_22_1902,contrast,2021.2.3,59.967641451637995,
0.9,1,6,15,8,50.47177980002016,None,50.47177980002016,None,50.47177980002016,None,right,0.8129517000052147,50.554790000023786,None,50.47177980002016,None,51.39250170002924,None,t_rgb,001,2022_Jan_22_1902,contrast,2021.2.3,59.967641451637995,
0.1,1,7,16,0,51.60412820003694,None,51.60412820003694,None,51.60412820003694,None,left,0.7356810999917798,51.68720829999074,None,51.60412820003694,None,52.45546890003607,None,t_rgb,001,2022_Jan_22_1902,contrast,2021.2.3,59.967641451637995,
0.4,1,8,17,2,52.66985529998783,None,52.66985529998783,None,52.66985529998783,None,left,1.1441802000044845,52.75286860001506,None,52.66985529998783,None,53.92376949999016,None,t_rgb,001,2022_Jan_22_1902,contrast,2021.2.3,59.967641451637995,
0.3,2,0,18,1,54.142493700026534,None,54.142493700026534,None,54.142493700026534,None,left,1.5498890999588184,54.21857650001766,None,54.142493700026534,None,55.787715499987826,None,t_rgb,001,2022_Jan_22_1902,contrast,2021.2.3,59.967641451637995,
0.7,2,1,19,7,56.00023270002566,None,56.00023270002566,None,56.00023270002566,None,right,0.5479183999705128,56.08348349999869,None,56.00023270002566,None,56.65221840003505,None,t_rgb,001,2022_Jan_22_1902,contrast,2021.2.3,59.967641451637995,
0.5,2,2,20,4,56.86626810004236,None,56.86626810004236,None,56.86626810004236,None,right,2.2272222000174224,56.94922410004074,None,56.86626810004236,None,59.202599600015674,None,t_rgb,001,2022_Jan_22_1902,contrast,2021.2.3,59.967641451637995,
0.55,2,3,21,5,59.414136000035796,None,59.414136000035796,None,59.414136000035796,None,right,1.0376085000461899,59.49731300002895,None,59.414136000035796,None,60.56512590002967,None,t_rgb,001,2022_Jan_22_1902,contrast,2021.2.3,59.967641451637995,
0.6,2,4,22,6,60.77974319999339,None,60.77974319999339,None,60.77974319999339,None,right,0.5204352000146173,60.862643900036346,None,60.77974319999339,None,61.414283099991735,None,t_rgb,001,2022_Jan_22_1902,contrast,2021.2.3,59.967641451637995,
0.45,2,5,23,3,61.62871290004114,None,61.62871290004114,None,61.62871290004114,None,right,1.0321250000270084,61.71177390002413,None,61.62871290004114,None,62.76353150000796,None,t_rgb,001,2022_Jan_22_1902,contrast,2021.2.3,59.967641451637995,
0.9,2,6,24,8,62.97923990001436,None,62.97923990001436,None,62.97923990001436,None,right,0.5151448000106029,63.060742100002244,None,62.97923990001436,None,63.59618480002973,None,t_rgb,001,2022_Jan_22_1902,contrast,2021.2.3,59.967641451637995,
0.4,2,7,25,2,63.81042980001075,None,63.81042980001075,None,63.81042980001075,None,left,0.65978519996861,63.893436899990775,None,63.81042980001075,None,64.59256820002338,None,t_rgb,001,2022_Jan_22_1902,contrast,2021.2.3,59.967641451637995,
0.1,2,8,26,0,64.79383129999042,None,64.79383129999042,None,64.79383129999042,None,left,0.5867890000226907,64.87620170001173,None,64.79383129999042,None,65.49382329999935,None,t_rgb,001,2022_Jan_22_1902,contrast,2021.2.3,59.967641451637995,
0.1,3,0,27,0,65.70856440003263,None,65.70856440003263,None,65.70856440003263,None,left,0.5035704000038095,65.79156240000157,None,65.70856440003263,None,66.32667790004052,None,t_rgb,001,2022_Jan_22_1902,contrast,2021.2.3,59.967641451637995,
0.55,3,1,28,5,66.54103770002257,None,66.54103770002257,None,66.54103770002257,None,right,0.664018900017254,66.6241990000126,None,66.54103770002257,None,67.30973919999087,None,t_rgb,001,2022_Jan_22_1902,contrast,2021.2.3,59.967641451637995,
0.7,3,2,29,7,67.52388150000479,None,67.52388150000479,None,67.52388150000479,None,right,0.9124074000283144,67.60663230001228,None,67.52388150000479,None,68.5579397000256,None,t_rgb,001,2022_Jan_22_1902,contrast,2021.2.3,59.967641451637995,
0.4,3,3,30,2,68.77247000002535,None,68.77247000002535,None,68.77247000002535,None,right,1.0710011000046507,68.85585019999417,None,68.77247000002535,None,69.95666710002115,None,t_rgb,001,2022_Jan_22_1902,contrast,2021.2.3,59.967641451637995,
0.5,3,4,31,4,70.17140079999808,None,70.17140079999808,None,70.17140079999808,None,right,0.6973615000024438,70.25447790004546,None,70.17140079999808,None,70.97269880003296,None,t_rgb,001,2022_Jan_22_1902,contrast,2021.2.3,59.967641451637995,
0.3,3,5,32,1,71.1871070000343,None,71.1871070000343,None,71.1871070000343,None,left,0.720637499995064,71.27035539998906,None,71.1871070000343,None,72.02189560001716,None,t_rgb,001,2022_Jan_22_1902,contrast,2021.2.3,59.967641451637995,
0.6,3,6,33,6,72.2366531000007,None,72.2366531000007,None,72.2366531000007,None,right,0.6806116999941878,72.31913850002456,None,72.2366531000007,None,73.0212937000324,None,t_rgb,001,2022_Jan_22_1902,contrast,2021.2.3,59.967641451637995,
0.9,3,7,34,8,73.23567050002748,None,73.23567050002748,None,73.23567050002748,None,right,0.8009859999874607,73.31819300004281,None,73.23567050002748,None,74.1367026999942,None,t_rgb,001,2022_Jan_22_1902,contrast,2021.2.3,59.967641451637995,
0.45,3,8,35,3,74.35110790003091,None,74.35110790003091,None,74.35110790003091,None,right,6.006451900000684,74.43412230000831,None,74.35110790003091,None,80.46424390003085,None,t_rgb,001,2022_Jan_22_1902,contrast,2021.2.3,59.967641451637995,
0.5,4,0,36,4,80.67912029998843,None,80.67912029998843,None,80.67912029998843,None,right,3.8221522999810986,80.76185290003195,None,80.67912029998843,None,84.61423410003772,None,t_rgb,001,2022_Jan_22_1902,contrast,2021.2.3,59.967641451637995,
0.3,4,1,37,1,84.82533429999603,None,84.82533429999603,None,84.82533429999603,None,left,0.5064494999824092,84.9083687000093,None,84.82533429999603,None,85.44570899999235,None,t_rgb,001,2022_Jan_22_1902,contrast,2021.2.3,59.967641451637995,
0.6,4,2,38,6,85.65806750004413,None,85.65806750004413,None,85.65806750004413,None,right,1.147141300025396,85.74078690004535,None,85.65806750004413,None,86.90874300000723,None,t_rgb,001,2022_Jan_22_1902,contrast,2021.2.3,59.967641451637995,
0.7,4,3,39,7,87.1231043000007,None,87.1231043000007,None,87.1231043000007,None,right,0.6883678000303917,87.2067728000111,None,87.1231043000007,None,87.9254140999983,None,t_rgb,001,2022_Jan_22_1902,contrast,2021.2.3,59.967641451637995,
0.1,4,4,40,0,88.13873770000646,None,88.13873770000646,None,88.13873770000646,None,left,0.7130509000271559,88.2219572000322,None,88.13873770000646,None,88.97303680004552,None,t_rgb,001,2022_Jan_22_1902,contrast,2021.2.3,59.967641451637995,
0.4,4,5,41,2,89.18804560002172,None,89.18804560002172,None,89.18804560002172,None,right,2.7196761000086553,89.27130940003553,None,89.18804560002172,None,92.02102000004379,None,t_rgb,001,2022_Jan_22_1902,contrast,2021.2.3,59.967641451637995,
0.55,4,6,42,5,92.23565240000607,None,92.23565240000607,None,92.23565240000607,None,right,0.8109810000169091,92.3184457999887,None,92.23565240000607,None,93.15372030000435,None,t_rgb,001,2022_Jan_22_1902,contrast,2021.2.3,59.967641451637995,
0.45,4,7,43,3,93.36778860003687,None,93.36778860003687,None,93.36778860003687,None,right,0.8942536000395194,93.45068980002543,None,93.36778860003687,None,94.37275550002232,None,t_rgb,001,2022_Jan_22_1902,contrast,2021.2.3,59.967641451637995,
0.9,4,8,44,8,94.58329030004097,None,94.58329030004097,None,94.58329030004097,None,right,0.7816964000230655,94.66641520004487,None,94.58329030004097,None,95.46832139999606,None,t_rgb,001,2022_Jan_22_1902,contrast,2021.2.3,59.967641451637995,
0.9,5,0,45,8,95.68251539999619,None,95.68251539999619,None,95.68251539999619,None,right,0.5627632000250742,95.76567640004214,None,95.68251539999619,None,96.3509192999918,None,t_rgb,001,2022_Jan_22_1902,contrast,2021.2.3,59.967641451637995,
0.1,5,1,46,0,96.56493510003202,None,96.56493510003202,None,96.56493510003202,None,left,0.7347252999898046,96.64805260003777,None,96.56493510003202,None,97.40125510003418,None,t_rgb,001,2022_Jan_22_1902,contrast,2021.2.3,59.967641451637995,
0.45,5,2,47,3,97.61402420001104,None,97.61402420001104,None,97.61402420001104,None,left,0.6457395000034012,97.69722920004278,None,97.61402420001104,None,98.38192660000641,None,t_rgb,001,2022_Jan_22_1902,contrast,2021.2.3,59.967641451637995,
0.7,5,3,48,7,98.59669780003605,None,98.59669780003605,None,98.59669780003605,None,right,0.5925121000036597,98.6800302999909,None,98.59669780003605,None,99.29780360002769,None,t_rgb,001,2022_Jan_22_1902,contrast,2021.2.3,59.967641451637995,
0.5,5,4,49,4,99.51233070000308,None,99.51233070000308,None,99.51233070000308,None,right,1.70926050003618,99.59596480004257,None,99.51233070000308,None,101.33027149998816,None,t_rgb,001,2022_Jan_22_1902,contrast,2021.2.3,59.967641451637995,
0.6,5,5,50,6,101.54402989998925,None,101.54402989998925,None,101.54402989998925,None,right,0.8135355000267737,101.62707799999043,None,101.54402989998925,None,102.46194020000985,None,t_rgb,001,2022_Jan_22_1902,contrast,2021.2.3,59.967641451637995,
0.55,5,6,51,5,102.67619750002632,None,102.67619750002632,None,102.67619750002632,None,right,0.7516502999933437,102.75933670002269,None,102.67619750002632,None,103.5279339000117,None,t_rgb,001,2022_Jan_22_1902,contrast,2021.2.3,59.967641451637995,
0.3,5,7,52,1,103.74218530004146,None,103.74218530004146,None,103.74218530004146,None,left,0.5671878000139259,103.82537149998825,None,103.74218530004146,None,104.4110354000004,None,t_rgb,001,2022_Jan_22_1902,contrast,2021.2.3,59.967641451637995,
0.4,5,8,53,2,104.62490400002571,None,104.62490400002571,None,104.62490400002571,None,left,1.300407400005497,104.70768049999606,None,104.62490400002571,None,106.02595400001155,None,t_rgb,001,2022_Jan_22_1902,contrast,2021.2.3,59.967641451637995,
0.1,6,0,54,0,106.24015490000602,None,106.24015490000602,None,106.24015490000602,None,left,0.5492337999748997,106.32274430000689,None,106.24015490000602,None,106.89127280004323,None,t_rgb,001,2022_Jan_22_1902,contrast,2021.2.3,59.967641451637995,
0.9,6,1,55,8,107.10551369999303,None,107.10551369999303,None,107.10551369999303,None,right,0.4170390999643132,107.1898363000364,None,107.10551369999303,None,107.62396530003753,None,t_rgb,001,2022_Jan_22_1902,contrast,2021.2.3,59.967641451637995,
0.6,6,2,56,6,107.83815329999197,None,107.83815329999197,None,107.83815329999197,None,right,0.646326600050088,107.92142420000164,None,107.83815329999197,None,108.5896766000078,None,t_rgb,001,2022_Jan_22_1902,contrast,2021.2.3,59.967641451637995,
0.55,6,3,57,5,108.80416330002481,None,108.80416330002481,None,108.80416330002481,None,right,0.4008605000562966,108.88734960003057,None,108.80416330002481,None,109.30570540000917,None,t_rgb,001,2022_Jan_22_1902,contrast,2021.2.3,59.967641451637995,
0.4,6,4,58,2,109.52014790003886,None,109.52014790003886,None,109.52014790003886,None,left,0.6449828000040725,109.60336120001739,None,109.52014790003886,None,110.27192820003256,None,t_rgb,001,2022_Jan_22_1902,contrast,2021.2.3,59.967641451637995,
0.7,6,5,59,7,110.48611719999462,None,110.48611719999462,None,110.48611719999462,None,right,0.7669232999905944,110.56941709999228,None,110.48611719999462,None,111.35433719999855,None,t_rgb,001,2022_Jan_22_1902,contrast,2021.2.3,59.967641451637995,
0.5,6,6,60,4,111.57120310002938,None,111.57120310002938,None,111.57120310002938,None,right,0.7713971000048332,111.65149220003514,None,111.57120310002938,None,112.45283080002991,None,t_rgb,001,2022_Jan_22_1902,contrast,2021.2.3,59.967641451637995,
0.3,6,7,61,1,112.66726170002948,None,112.66726170002948,None,112.66726170002948,None,left,0.5842345000128262,112.75056210003095,None,112.66726170002948,None,113.35261440003524,None,t_rgb,001,2022_Jan_22_1902,contrast,2021.2.3,59.967641451637995,
0.45,6,8,62,3,113.56649749999633,None,113.56649749999633,None,113.56649749999633,None,left,1.8292558999964967,113.64984500000719,None,113.56649749999633,None,115.50067430001218,None,t_rgb,001,2022_Jan_22_1902,contrast,2021.2.3,59.967641451637995,
0.55,7,0,63,5,115.71522860002005,None,115.71522860002005,None,115.71522860002005,None,right,0.7047435000422411,115.79812470002798,None,115.71522860002005,None,116.53279430000111,None,t_rgb,001,2022_Jan_22_1902,contrast,2021.2.3,59.967641451637995,
0.1,7,1,64,0,116.74749620002694,None,116.74749620002694,None,116.74749620002694,None,left,0.5845708000124432,116.83041920000687,None,116.74749620002694,None,117.44912020000629,None,t_rgb,001,2022_Jan_22_1902,contrast,2021.2.3,59.967641451637995,
0.5,7,2,65,4,117.66318460000912,None,117.66318460000912,None,117.66318460000912,None,right,2.036568099982105,117.74638640001649,None,117.66318460000912,None,119.82782579999184,None,t_rgb,001,2022_Jan_22_1902,contrast,2021.2.3,59.967641451637995,
0.3,7,3,66,1,120.0303882000153,None,120.0303882000153,None,120.0303882000153,None,left,0.5194397000013851,120.11146079999162,None,120.0303882000153,None,120.66250100004254,None,t_rgb,001,2022_Jan_22_1902,contrast,2021.2.3,59.967641451637995,
0.7,7,4,67,7,120.87829270004295,None,120.87829270004295,None,120.87829270004295,None,right,0.8070142000215128,120.96038699999917,None,120.87829270004295,None,121.79906849999679,None,t_rgb,001,2022_Jan_22_1902,contrast,2021.2.3,59.967641451637995,
0.9,7,5,68,8,122.00932360003935,None,122.00932360003935,None,122.00932360003935,None,right,0.9059902000008151,122.07818790001329,None,122.00932360003935,None,123.00885800004471,None,t_rgb,001,2022_Jan_22_1902,contrast,2021.2.3,59.967641451637995,
0.45,7,6,69,3,123.2123768000165,None,123.2123768000165,None,123.2123768000165,None,right,0.8112675999873318,123.29172139998991,None,123.2123768000165,None,124.12559190002503,None,t_rgb,001,2022_Jan_22_1902,contrast,2021.2.3,59.967641451637995,
0.4,7,7,70,2,124.32766770001035,None,124.32766770001035,None,124.32766770001035,None,right,0.5287724999943748,124.40762050001649,None,124.32766770001035,None,124.96417280001333,None,t_rgb,001,2022_Jan_22_1902,contrast,2021.2.3,59.967641451637995,
0.6,7,8,71,6,125.17739800002892,None,125.17739800002892,None,125.17739800002892,None,right,0.8455053000361659,125.25855230004527,None,125.17739800002892,None,126.13947980001103,None,t_rgb,001,2022_Jan_22_1902,contrast,2021.2.3,59.967641451637995,
0.4,8,0,72,2,126.33955400000559,None,126.33955400000559,None,126.33955400000559,None,left,0.6876540000084788,126.42316510004457,None,126.33955400000559,None,127.14891570003238,None,t_rgb,001,2022_Jan_22_1902,contrast,2021.2.3,59.967641451637995,
0.6,8,1,73,6,127.36329539999133,None,127.36329539999133,None,127.36329539999133,None,right,1.1190473000169732,127.44877960003214,None,127.36329539999133,None,128.59359930001665,None,t_rgb,001,2022_Jan_22_1902,contrast,2021.2.3,59.967641451637995,
0.9,8,2,74,8,128.80638880003244,None,128.80638880003244,None,128.80638880003244,None,right,0.6866175000322983,128.88826380000683,None,128.80638880003244,None,129.60698480001884,None,t_rgb,001,2022_Jan_22_1902,contrast,2021.2.3,59.967641451637995,
0.1,8,3,75,0,129.8211580000352,None,129.8211580000352,None,129.8211580000352,None,left,0.5337890000082552,129.90602709999075,None,129.8211580000352,None,130.4690887000179,None,t_rgb,001,2022_Jan_22_1902,contrast,2021.2.3,59.967641451637995,
0.45,8,4,76,3,130.6729037000332,None,130.6729037000332,None,130.6729037000332,None,left,4.71119230001932,130.75318980001612,None,130.6729037000332,None,135.48394539998844,None,t_rgb,001,2022_Jan_22_1902,contrast,2021.2.3,59.967641451637995,
0.55,8,5,77,5,135.69775640004082,None,135.69775640004082,None,135.69775640004082,None,right,0.867278499994427,135.78056819998892,None,135.69775640004082,None,136.66630260000238,None,t_rgb,001,2022_Jan_22_1902,contrast,2021.2.3,59.967641451637995,
0.3,8,6,78,1,136.87990970001556,None,136.87990970001556,None,136.87990970001556,None,left,0.6940531000145711,136.9629820000264,None,136.87990970001556,None,137.69096290000016,None,t_rgb,001,2022_Jan_22_1902,contrast,2021.2.3,59.967641451637995,
0.5,8,7,79,4,137.8963337999885,None,137.8963337999885,None,137.8963337999885,None,right,1.2136484000366181,137.97868629998993,None,137.8963337999885,None,139.21336480003083,None,t_rgb,001,2022_Jan_22_1902,contrast,2021.2.3,59.967641451637995,
0.7,8,8,80,7,139.4275119000231,None,139.4275119000231,None,139.4275119000231,None,right,0.7682021999498829,139.51079760002904,None,139.4275119000231,None,140.2957617000211,None,t_rgb,001,2022_Jan_22_1902,contrast,2021.2.3,59.967641451637995,
0.1,9,0,81,0,140.5100091000204,None,140.5100091000204,None,140.5100091000204,None,left,0.6459482999634929,140.59310880000703,None,140.5100091000204,None,141.27773720002733,None,t_rgb,001,2022_Jan_22_1902,contrast,2021.2.3,59.967641451637995,
0.5,9,1,82,4,141.49262949998956,None,141.49262949998956,None,141.49262949998956,None,right,0.7033191000227816,141.57587800000329,None,141.49262949998956,None,142.31021110003348,None,t_rgb,001,2022_Jan_22_1902,contrast,2021.2.3,59.967641451637995,
0.6,9,2,83,6,142.52482130000135,None,142.52482130000135,None,142.52482130000135,None,right,0.7769857000093907,142.6081034000381,None,142.52482130000135,None,143.40971740003442,None,t_rgb,001,2022_Jan_22_1902,contrast,2021.2.3,59.967641451637995,
0.9,9,3,84,8,143.6240885000443,None,143.6240885000443,None,143.6240885000443,None,right,0.6202706000185572,143.70687789999647,None,143.6240885000443,None,144.35644380003214,None,t_rgb,001,2022_Jan_22_1902,contrast,2021.2.3,59.967641451637995,
0.7,9,4,85,7,144.55729750002502,None,144.55729750002502,None,144.55729750002502,None,right,0.9832986000110395,144.63964040001156,None,144.55729750002502,None,145.64091310004005,None,t_rgb,001,2022_Jan_22_1902,contrast,2021.2.3,59.967641451637995,
0.45,9,5,86,3,145.85568189999321,None,145.85568189999321,None,145.85568189999321,None,left,1.2207547999569215,145.93835730000865,None,145.85568189999321,None,147.18949489999795,None,t_rgb,001,2022_Jan_22_1902,contrast,2021.2.3,59.967641451637995,
0.3,9,6,87,1,147.4036594000063,None,147.4036594000063,None,147.4036594000063,None,left,0.713168999995105,147.48702810000395,None,147.4036594000063,None,148.222222100012,None,t_rgb,001,2022_Jan_22_1902,contrast,2021.2.3,59.967641451637995,
0.55,9,7,88,5,148.43682639999315,None,148.43682639999315,None,148.43682639999315,None,right,0.6237001999979839,148.51949949999107,None,148.43682639999315,None,149.17111960001057,None,t_rgb,001,2022_Jan_22_1902,contrast,2021.2.3,59.967641451637995,
0.4,9,8,89,2,149.38536390004447,None,149.38536390004447,None,149.38536390004447,None,left,5.96283749997383,149.46841430000495,None,149.38536390004447,None,155.44952730002115,None,t_rgb,001,2022_Jan_22_1902,contrast,2021.2.3,59.967641451637995,
0.7,10,0,90,7,155.6634840000188,None,155.6634840000188,None,155.6634840000188,None,right,1.0936329999822192,155.7466115000425,None,155.6634840000188,None,156.86487340001622,None,t_rgb,001,2022_Jan_22_1902,contrast,2021.2.3,59.967641451637995,
0.9,10,1,91,8,157.0791179999942,None,157.0791179999942,None,157.0791179999942,None,right,0.6207702000392601,157.16217349999351,None,157.0791179999942,None,157.81368090002798,None,t_rgb,001,2022_Jan_22_1902,contrast,2021.2.3,59.967641451637995,
0.6,10,2,92,6,158.0285603000084,None,158.0285603000084,None,158.0285603000084,None,right,0.7452559999655932,158.11106230004225,None,158.0285603000084,None,158.87956770003075,None,t_rgb,001,2022_Jan_22_1902,contrast,2021.2.3,59.967641451637995,
0.4,10,3,93,2,159.0938517000177,None,159.0938517000177,None,159.0938517000177,None,left,1.2789649000042118,159.1773802000098,None,159.0938517000177,None,160.4823823000188,None,t_rgb,001,2022_Jan_22_1902,contrast,2021.2.3,59.967641451637995,
0.5,10,4,94,4,160.69413110002642,None,160.69413110002642,None,160.69413110002642,None,right,0.6700326999998651,160.77677759999642,None,160.69413110002642,None,161.46523170004366,None,t_rgb,001,2022_Jan_22_1902,contrast,2021.2.3,59.967641451637995,
0.3,10,5,95,1,161.67639640002744,None,161.67639640002744,None,161.67639640002744,None,left,0.6638422000105493,161.7589915000135,None,161.67639640002744,None,162.44706269999733,None,t_rgb,001,2022_Jan_22_1902,contrast,2021.2.3,59.967641451637995,
0.55,10,6,96,5,162.65779490000568,None,162.65779490000568,None,162.65779490000568,None,right,0.5136491999728605,162.74115380004514,None,162.65779490000568,None,163.28059090004535,None,t_rgb,001,2022_Jan_22_1902,contrast,2021.2.3,59.967641451637995,
0.45,10,7,97,3,163.4899005999905,None,163.4899005999905,None,163.4899005999905,None,right,0.6131824000040069,163.57285210001282,None,163.4899005999905,None,164.20879699999932,None,t_rgb,001,2022_Jan_22_1902,contrast,2021.2.3,59.967641451637995,
0.1,10,8,98,0,164.4228804000304,None,164.4228804000304,None,164.4228804000304,None,left,1.310612500004936,164.50558430003002,None,164.4228804000304,None,165.84072480001487,None,t_rgb,001,2022_Jan_22_1902,contrast,2021.2.3,59.967641451637995,
0.4,11,0,99,2,166.054248200031,None,166.054248200031,None,166.054248200031,None,left,1.7749234999646433,166.13754620001419,None,166.054248200031,None,167.94218960002763,None,t_rgb,001,2022_Jan_22_1902,contrast,2021.2.3,59.967641451637995,
0.45,11,1,100,3,168.15245900000446,None,168.15245900000446,None,168.15245900000446,None,left,1.2771572000347078,168.23594889999367,None,168.15245900000446,None,169.53685949998908,None,t_rgb,001,2022_Jan_22_1902,contrast,2021.2.3,59.967641451637995,
0.7,11,2,101,7,169.7510564000113,None,169.7510564000113,None,169.7510564000113,None,right,0.46262400003615767,169.8340522000217,None,169.7510564000113,None,170.32188030000543,None,t_rgb,001,2022_Jan_22_1902,contrast,2021.2.3,59.967641451637995,
0.55,11,3,102,5,170.53376310004387,None,170.53376310004387,None,170.53376310004387,None,right,0.3832571000093594,170.61702960002003,None,170.53376310004387,None,171.0203873999999,None,t_rgb,001,2022_Jan_22_1902,contrast,2021.2.3,59.967641451637995,
0.5,11,4,103,4,171.23344500001986,None,171.23344500001986,None,171.23344500001986,None,right,0.6285386999952607,171.31618050002726,None,171.23344500001986,None,171.96957030001795,None,t_rgb,001,2022_Jan_22_1902,contrast,2021.2.3,59.967641451637995,
0.9,11,5,104,8,172.1827935000183,None,172.1827935000183,None,172.1827935000183,None,right,0.3981093000038527,172.2655826000264,None,172.1827935000183,None,172.68579509999836,None,t_rgb,001,2022_Jan_22_1902,contrast,2021.2.3,59.967641451637995,
0.6,11,6,105,6,172.89836849999847,None,172.89836849999847,None,172.89836849999847,None,right,0.6587010999792255,172.98148650000803,None,172.89836849999847,None,173.66649160004454,None,t_rgb,001,2022_Jan_22_1902,contrast,2021.2.3,59.967641451637995,
0.1,11,7,106,0,173.88076349999756,None,173.88076349999756,None,173.88076349999756,None,left,0.5548543999902904,173.96404210000765,None,173.88076349999756,None,174.54885290004313,None,t_rgb,001,2022_Jan_22_1902,contrast,2021.2.3,59.967641451637995,
0.3,11,8,107,1,174.76353300001938,None,174.76353300001938,None,174.76353300001938,None,left,0.729459099995438,174.84676270000637,None,174.76353300001938,None,175.59842890000436,None,t_rgb,001,2022_Jan_22_1902,contrast,2021.2.3,59.967641451637995,
0.4,12,0,108,2,175.81293690000894,None,175.81293690000894,None,175.81293690000894,None,left,0.7195128999883309,175.89545660000294,None,175.81293690000894,None,176.6322513000341,None,t_rgb,001,2022_Jan_22_1902,contrast,2021.2.3,59.967641451637995,
0.3,12,1,109,1,176.84529960004147,None,176.84529960004147,None,176.84529960004147,None,left,1.3668667000019923,176.92828430002555,None,176.84529960004147,None,178.32667750003748,None,t_rgb,001,2022_Jan_22_1902,contrast,2021.2.3,59.967641451637995,
0.6,12,2,110,6,178.52751650003484,None,178.52751650003484,None,178.52751650003484,None,right,0.5977578000165522,178.60991100000683,None,178.52751650003484,None,179.22916290001012,None,t_rgb,001,2022_Jan_22_1902,contrast,2021.2.3,59.967641451637995,
0.45,12,3,111,3,179.44260240002768,None,179.44260240002768,None,179.44260240002768,None,right,0.6892084999708459,179.525712200033,None,179.44260240002768,None,180.24810240004444,None,t_rgb,001,2022_Jan_22_1902,contrast,2021.2.3,59.967641451637995,
0.1,12,4,112,0,180.45970549999038,None,180.45970549999038,None,180.45970549999038,None,left,0.520172199991066,180.5426989000407,None,180.45970549999038,None,181.09711979998974,None,t_rgb,001,2022_Jan_22_1902,contrast,2021.2.3,59.967641451637995,
0.5,12,5,113,4,181.30882100004237,None,181.30882100004237,None,181.30882100004237,None,right,0.5193179000052623,181.3914946000441,None,181.30882100004237,None,181.94448240002384,None,t_rgb,001,2022_Jan_22_1902,contrast,2021.2.3,59.967641451637995,
0.9,12,6,114,8,182.15707680000924,None,182.15707680000924,None,182.15707680000924,None,right,0.630682299961336,182.24030880001374,None,182.15707680000924,None,182.90614360000473,None,t_rgb,001,2022_Jan_22_1902,contrast,2021.2.3,59.967641451637995,
0.55,12,7,115,5,183.10620969999582,None,183.10620969999582,None,183.10620969999582,None,right,0.8339793999912217,183.18911969999317,None,183.10620969999582,None,184.0409634000389,None,t_rgb,001,2022_Jan_22_1902,contrast,2021.2.3,59.967641451637995,
0.7,12,8,116,7,184.2549417000264,None,184.2549417000264,None,184.2549417000264,None,right,0.4362033000215888,184.3388050000067,None,184.2549417000264,None,184.8056021000375,None,t_rgb,001,2022_Jan_22_1902,contrast,2021.2.3,59.967641451637995,
0.55,13,0,117,5,185.02107600000454,None,185.02107600000454,None,185.02107600000454,None,right,0.4864893000340089,185.1043816000456,None,185.02107600000454,None,185.62254200002644,None,t_rgb,001,2022_Jan_22_1902,contrast,2021.2.3,59.967641451637995,
0.5,13,1,118,4,185.83744259999366,None,185.83744259999366,None,185.83744259999366,None,right,1.03083299996797,185.9201809000224,None,185.83744259999366,None,186.9858681000187,None,t_rgb,001,2022_Jan_22_1902,contrast,2021.2.3,59.967641451637995,
0.7,13,2,119,7,187.18800080002984,None,187.18800080002984,None,187.18800080002984,None,right,0.47731650003697723,187.25849700003164,None,187.18800080002984,None,187.75398450001376,None,t_rgb,001,2022_Jan_22_1902,contrast,2021.2.3,59.967641451637995,
0.3,13,3,120,1,187.96863120002672,None,187.96863120002672,None,187.96863120002672,None,left,0.6923691999982111,188.05242820002604,None,187.96863120002672,None,188.7845190000371,None,t_rgb,001,2022_Jan_22_1902,contrast,2021.2.3,59.967641451637995,
0.45,13,4,121,3,188.98413689999143,None,188.98413689999143,None,188.98413689999143,None,right,1.595592099998612,189.06737450003857,None,188.98413689999143,None,190.68501560000004,None,t_rgb,001,2022_Jan_22_1902,contrast,2021.2.3,59.967641451637995,
0.9,13,5,122,8,190.8992847999907,None,190.8992847999907,None,190.8992847999907,None,right,0.6106399999698624,190.98236690001795,None,190.8992847999907,None,191.61727660003817,None,t_rgb,001,2022_Jan_22_1902,contrast,2021.2.3,59.967641451637995,
0.1,13,6,123,0,191.83191569999326,None,191.83191569999326,None,191.83191569999326,None,left,0.5559986000298522,191.91513040004065,None,191.83191569999326,None,192.4977746999939,None,t_rgb,001,2022_Jan_22_1902,contrast,2021.2.3,59.967641451637995,
0.6,13,7,124,6,192.69794570002705,None,192.69794570002705,None,192.69794570002705,None,right,0.5698574000271037,192.78104309999617,None,192.69794570002705,None,193.3826057999977,None,t_rgb,001,2022_Jan_22_1902,contrast,2021.2.3,59.967641451637995,
0.4,13,8,125,2,193.5969779000152,None,193.5969779000152,None,193.5969779000152,None,right,1.6246734999585897,193.6800037000212,None,193.5969779000152,None,195.333692300017,None,t_rgb,001,2022_Jan_22_1902,contrast,2021.2.3,59.967641451637995,
0.45,14,0,126,3,195.5450789000024,None,195.5450789000024,None,195.5450789000024,None,right,2.106925099971704,195.62853410001844,None,195.5450789000024,None,197.76209350000136,None,t_rgb,001,2022_Jan_22_1902,contrast,2021.2.3,59.967641451637995,
0.55,14,1,127,5,197.97674060001737,None,197.97674060001737,None,197.97674060001737,None,right,0.746282699983567,198.06068799999775,None,197.97674060001737,None,198.84231700003147,None,t_rgb,001,2022_Jan_22_1902,contrast,2021.2.3,59.967641451637995,
0.1,14,2,128,0,199.04216160002397,None,199.04216160002397,None,199.04216160002397,None,left,0.4985890999669209,199.1252321000211,None,199.04216160002397,None,199.64360850001685,None,t_rgb,001,2022_Jan_22_1902,contrast,2021.2.3,59.967641451637995,
0.7,14,3,129,7,199.8582635000348,None,199.8582635000348,None,199.8582635000348,None,right,0.8834335000137798,199.94132819998777,None,199.8582635000348,None,200.84276900003897,None,t_rgb,001,2022_Jan_22_1902,contrast,2021.2.3,59.967641451637995,
0.4,14,4,130,2,201.05696830002125,None,201.05696830002125,None,201.05696830002125,None,right,1.138764999981504,201.14029940002365,None,201.05696830002125,None,202.30579479999142,None,t_rgb,001,2022_Jan_22_1902,contrast,2021.2.3,59.967641451637995,
0.9,14,5,131,8,202.50607210001908,None,202.50607210001908,None,202.50607210001908,None,right,0.6342410999932326,202.5891314999899,None,202.50607210001908,None,203.25720540003385,None,t_rgb,001,2022_Jan_22_1902,contrast,2021.2.3,59.967641451637995,
0.5,14,6,132,4,203.47177830000874,None,203.47177830000874,None,203.47177830000874,None,right,0.7094688999932259,203.55504160001874,None,203.47177830000874,None,204.2897343999939,None,t_rgb,001,2022_Jan_22_1902,contrast,2021.2.3,59.967641451637995,
0.6,14,7,133,6,204.50424540002132,None,204.50424540002132,None,204.50424540002132,None,right,0.5557994000264443,204.58712109999033,None,204.50424540002132,None,205.1719720000401,None,t_rgb,001,2022_Jan_22_1902,contrast,2021.2.3,59.967641451637995,
0.3,14,8,134,1,205.38643330003833,None,205.38643330003833,None,205.38643330003833,None,left,0.634697400033474,205.46969440003159,None,205.38643330003833,None,206.12163900001906,None,t_rgb,001,2022_Jan_22_1902,contrast,2021.2.3,59.967641451637995,
0.6,15,0,135,6,206.33565670001553,None,206.33565670001553,None,206.33565670001553,None,right,0.8359014999587089,206.41899610002292,None,206.33565670001553,None,207.2868521999917,None,t_rgb,001,2022_Jan_22_1902,contrast,2021.2.3,59.967641451637995,
0.3,15,1,136,1,207.5016137000057,None,207.5016137000057,None,207.5016137000057,None,left,1.7997415999998339,207.5845457999967,None,207.5016137000057,None,209.4020938000176,None,t_rgb,001,2022_Jan_22_1902,contrast,2021.2.3,59.967641451637995,
0.1,15,2,137,0,209.6167518000002,None,209.6167518000002,None,209.6167518000002,None,left,0.5964175999979489,209.69927380001172,None,209.6167518000002,None,210.33215750003,None,t_rgb,001,2022_Jan_22_1902,contrast,2021.2.3,59.967641451637995,
0.7,15,3,138,7,210.53238650003914,None,210.53238650003914,None,210.53238650003914,None,right,0.4809149999637157,210.6154048999888,None,210.53238650003914,None,211.11754330003168,None,t_rgb,001,2022_Jan_22_1902,contrast,2021.2.3,59.967641451637995,
0.5,15,4,139,4,211.33178659999976,None,211.33178659999976,None,211.33178659999976,None,right,0.5943695000023581,211.41473930003121,None,211.33178659999976,None,212.03287900000578,None,t_rgb,001,2022_Jan_22_1902,contrast,2021.2.3,59.967641451637995,
0.45,15,5,140,3,212.24803170002997,None,212.24803170002997,None,212.24803170002997,None,right,0.6206231000251137,212.3305066000321,None,212.24803170002997,None,212.98510210000677,None,t_rgb,001,2022_Jan_22_1902,contrast,2021.2.3,59.967641451637995,
0.55,15,6,141,5,213.1966429000022,None,213.1966429000022,None,213.1966429000022,None,right,0.519348000001628,213.27979060000507,None,213.1966429000022,None,213.83148719999008,None,t_rgb,001,2022_Jan_22_1902,contrast,2021.2.3,59.967641451637995,
0.4,15,7,142,2,214.0457599000074,None,214.0457599000074,None,214.0457599000074,None,right,1.0153255999903195,214.12889380002161,None,214.0457599000074,None,215.16431459999876,None,t_rgb,001,2022_Jan_22_1902,contrast,2021.2.3,59.967641451637995,
0.9,15,8,143,8,215.3780675000162,None,215.3780675000162,None,215.3780675000162,None,right,0.6745276000001468,215.4613590000081,None,215.3780675000162,None,216.1633991000126,None,t_rgb,001,2022_Jan_22_1902,contrast,2021.2.3,59.967641451637995,
0.1,16,0,144,0,216.37733160000062,None,216.37733160000062,None,216.37733160000062,None,left,0.5067070000222884,216.46034039999358,None,216.37733160000062,None,216.99531670002034,None,t_rgb,001,2022_Jan_22_1902,contrast,2021.2.3,59.967641451637995,
0.6,16,1,145,6,217.2105652000173,None,217.2105652000173,None,217.2105652000173,None,right,0.7305911000003107,217.29274800000712,None,217.2105652000173,None,218.04428040003404,None,t_rgb,001,2022_Jan_22_1902,contrast,2021.2.3,59.967641451637995,
0.7,16,2,146,7,218.25908190000337,None,218.25908190000337,None,218.25908190000337,None,right,0.9287171000032686,218.34237810003106,None,218.25908190000337,None,219.30971619999036,None,t_rgb,001,2022_Jan_22_1902,contrast,2021.2.3,59.967641451637995,
0.55,16,3,147,5,219.52463870000793,None,219.52463870000793,None,219.52463870000793,None,right,1.0396900000050664,219.60740330000408,None,219.52463870000793,None,220.6757148000179,None,t_rgb,001,2022_Jan_22_1902,contrast,2021.2.3,59.967641451637995,
0.45,16,4,148,3,220.8898387000081,None,220.8898387000081,None,220.8898387000081,None,right,1.0018756000208668,220.97297360002995,None,220.8898387000081,None,221.99291110003833,None,t_rgb,001,2022_Jan_22_1902,contrast,2021.2.3,59.967641451637995,
0.9,16,5,149,8,222.20582309999736,None,222.20582309999736,None,222.20582309999736,None,right,0.6638250999967568,222.28845950000687,None,222.20582309999736,None,222.97353030001977,None,t_rgb,001,2022_Jan_22_1902,contrast,2021.2.3,59.967641451637995,
0.3,16,6,150,1,223.18793380004354,None,223.18793380004354,None,223.18793380004354,None,left,0.4800202999613248,223.2710699000163,None,223.18793380004354,None,223.78920330002438,None,t_rgb,001,2022_Jan_22_1902,contrast,2021.2.3,59.967641451637995,
0.4,16,7,151,2,223.9897498000064,None,223.9897498000064,None,223.9897498000064,None,left,0.49679780000587925,224.07029599999078,None,223.9897498000064,None,224.60506190004526,None,t_rgb,001,2022_Jan_22_1902,contrast,2021.2.3,59.967641451637995,
0.5,16,8,152,4,224.81999510002788,None,224.81999510002788,None,224.81999510002788,None,right,0.6560008999658749,224.90292920003412,None,224.81999510002788,None,225.58773580001434,None,t_rgb,001,2022_Jan_22_1902,contrast,2021.2.3,59.967641451637995,
0.4,17,0,153,2,225.80222790001426,None,225.80222790001426,None,225.80222790001426,None,left,1.2598047000356019,225.88526740000816,None,225.80222790001426,None,227.1708404000383,None,t_rgb,001,2022_Jan_22_1902,contrast,2021.2.3,59.967641451637995,
0.7,17,1,154,7,227.38420000002952,None,227.38420000002952,None,227.38420000002952,None,right,0.3633955999976024,227.46751980000408,None,227.38420000002952,None,227.85249459999613,None,t_rgb,001,2022_Jan_22_1902,contrast,2021.2.3,59.967641451637995,
0.5,17,2,155,4,228.06700119999005,None,228.06700119999005,None,228.06700119999005,None,right,1.1528651000116952,228.15010309999343,None,228.06700119999005,None,229.33464559999993,None,t_rgb,001,2022_Jan_22_1902,contrast,2021.2.3,59.967641451637995,
0.1,17,3,156,0,229.5489857000066,None,229.5489857000066,None,229.5489857000066,None,left,0.584157100005541,229.63200600002892,None,229.5489857000066,None,230.23459150001872,None,t_rgb,001,2022_Jan_22_1902,contrast,2021.2.3,59.967641451637995,
0.9,17,4,157,8,230.44824240001617,None,230.44824240001617,None,230.44824240001617,None,right,0.5641795999836177,230.53138130001025,None,230.44824240001617,None,231.11677030002465,None,t_rgb,001,2022_Jan_22_1902,contrast,2021.2.3,59.967641451637995,
0.45,17,5,158,3,231.3307244000025,None,231.3307244000025,None,231.3307244000025,None,right,1.601284799980931,231.41378010000335,None,231.3307244000025,None,233.04787460004445,None,t_rgb,001,2022_Jan_22_1902,contrast,2021.2.3,59.967641451637995,
0.55,17,6,159,5,233.26307470002212,None,233.26307470002212,None,233.26307470002212,None,right,0.7272370000137016,233.34560850000707,None,233.26307470002212,None,234.0987323000445,None,t_rgb,001,2022_Jan_22_1902,contrast,2021.2.3,59.967641451637995,
0.3,17,7,160,1,234.311802500044,None,234.311802500044,None,234.311802500044,None,left,0.4454705999814905,234.39479920000304,None,234.311802500044,None,234.86422700004186,None,t_rgb,001,2022_Jan_22_1902,contrast,2021.2.3,59.967641451637995,
0.6,17,8,161,6,235.0790566999931,None,235.0790566999931,None,235.0790566999931,None,right,0.5413356999633834,235.16367800004082,None,235.0790566999931,None,235.72881200001575,None,t_rgb,001,2022_Jan_22_1902,contrast,2021.2.3,59.967641451637995,
0.55,18,0,162,5,235.94332840002608,None,235.94332840002608,None,235.94332840002608,None,right,0.8456752999918535,236.0265184000018,None,235.94332840002608,None,236.89463260001503,None,t_rgb,001,2022_Jan_22_1902,contrast,2021.2.3,59.967641451637995,
0.6,18,1,163,6,237.1087921000435,None,237.1087921000435,None,237.1087921000435,None,right,0.622791400004644,237.1920475999941,None,237.1087921000435,None,237.84341670002323,None,t_rgb,001,2022_Jan_22_1902,contrast,2021.2.3,59.967641451637995,
0.9,18,2,164,8,238.058286399988,None,238.058286399988,None,238.058286399988,None,right,0.6016703000059351,238.1412272999878,None,238.058286399988,None,238.75944420002634,None,t_rgb,001,2022_Jan_22_1902,contrast,2021.2.3,59.967641451637995,
0.7,18,3,165,7,238.97390129999258,None,238.97390129999258,None,238.97390129999258,None,right,0.4536111999768764,239.05731649999507,None,238.97390129999258,None,239.54221000004327,None,t_rgb,001,2022_Jan_22_1902,contrast,2021.2.3,59.967641451637995,
0.5,18,4,166,4,239.75667810003506,None,239.75667810003506,None,239.75667810003506,None,left,0.6801529999938793,239.83993240003474,None,239.75667810003506,None,240.5413300000364,None,t_rgb,001,2022_Jan_22_1902,contrast,2021.2.3,59.967641451637995,
0.45,18,5,167,3,240.75584340002388,None,240.75584340002388,None,240.75584340002388,None,left,0.7200603000237606,240.83887139998842,None,240.75584340002388,None,241.59014939999906,None,t_rgb,001,2022_Jan_22_1902,contrast,2021.2.3,59.967641451637995,
0.4,18,6,168,2,241.80476339999586,None,241.80476339999586,None,241.80476339999586,None,left,0.5839082000311464,241.88800159998937,None,241.80476339999586,None,242.4897829000256,None,t_rgb,001,2022_Jan_22_1902,contrast,2021.2.3,59.967641451637995,
0.3,18,7,169,1,242.70429610001156,None,242.70429610001156,None,242.70429610001156,None,left,0.5332786999642849,242.7871756000095,None,242.70429610001156,None,243.33885590004502,None,t_rgb,001,2022_Jan_22_1902,contrast,2021.2.3,59.967641451637995,
0.1,18,8,170,0,243.55331190000288,None,243.55331190000288,None,243.55331190000288,None,left,0.40156619995832443,243.63733019999927,None,243.55331190000288,None,244.07147500000428,None,t_rgb,001,2022_Jan_22_1902,contrast,2021.2.3,59.967641451637995,
0.7,19,0,171,7,244.28624250000576,None,244.28624250000576,None,244.28624250000576,None,right,0.4694716000230983,244.36943060002523,None,244.28624250000576,None,244.85649910004577,None,t_rgb,001,2022_Jan_22_1902,contrast,2021.2.3,59.967641451637995,
0.55,19,1,172,5,245.06849490001332,None,245.06849490001332,None,245.06849490001332,None,right,0.45485760003793985,245.15196580003249,None,245.06849490001332,None,245.63650990003953,None,t_rgb,001,2022_Jan_22_1902,contrast,2021.2.3,59.967641451637995,
0.45,19,2,173,3,245.8513674000278,None,245.8513674000278,None,245.8513674000278,None,right,0.28070139995543286,245.93443000002299,None,245.8513674000278,None,246.23652259999653,None,t_rgb,001,2022_Jan_22_1902,contrast,2021.2.3,59.967641451637995,
0.6,19,3,174,6,246.4505908000283,None,246.4505908000283,None,246.4505908000283,None,right,0.41759340005228296,246.5339149000356,None,246.4505908000283,None,246.96927060000598,None,t_rgb,001,2022_Jan_22_1902,contrast,2021.2.3,59.967641451637995,
0.1,19,4,175,0,247.18341890000738,None,247.18341890000738,None,247.18341890000738,None,left,0.5340437000268139,247.26653580000857,None,247.18341890000738,None,247.81832310004393,None,t_rgb,001,2022_Jan_22_1902,contrast,2021.2.3,59.967641451637995,
0.9,19,5,176,8,248.0328435000265,None,248.0328435000265,None,248.0328435000265,None,right,0.6734548999811523,248.1196612000349,None,248.0328435000265,None,248.81806850002613,None,t_rgb,001,2022_Jan_22_1902,contrast,2021.2.3,59.967641451637995,
0.4,19,6,177,2,249.03321409999626,None,249.03321409999626,None,249.03321409999626,None,right,2.1877521999995224,249.11536100000376,None,249.03321409999626,None,251.32982790004462,None,t_rgb,001,2022_Jan_22_1902,contrast,2021.2.3,59.967641451637995,
0.5,19,7,178,4,251.53068770002574,None,251.53068770002574,None,251.53068770002574,None,right,0.4442146000219509,251.61288040003274,None,251.53068770002574,None,252.08179369999561,None,t_rgb,001,2022_Jan_22_1902,contrast,2021.2.3,59.967641451637995,
0.3,19,8,179,1,252.29565079999156,None,252.29565079999156,None,252.29565079999156,None,left,1.1335204999777488,252.3789054999943,None,252.29565079999156,None,253.53047290001996,None,t_rgb,001,2022_Jan_22_1902,contrast,2021.2.3,59.967641451637995,
0.9,20,0,180,8,253.74475920002442,None,253.74475920002442,None,253.74475920002442,None,right,0.4672949999803677,253.82765110000037,None,253.74475920002442,None,254.32935250003356,None,t_rgb,001,2022_Jan_22_1902,contrast,2021.2.3,59.967641451637995,
0.6,20,1,181,6,254.5439742000308,None,254.5439742000308,None,254.5439742000308,None,right,0.6461713999742642,254.62705589999678,None,254.5439742000308,None,255.29771539999638,None,t_rgb,001,2022_Jan_22_1902,contrast,2021.2.3,59.967641451637995,
0.3,20,2,182,1,255.50989089999348,None,255.50989089999348,None,255.50989089999348,None,left,0.7022226999979466,255.59286350000184,None,255.50989089999348,None,256.32787680003094,None,t_rgb,001,2022_Jan_22_1902,contrast,2021.2.3,59.967641451637995,
0.7,20,3,183,7,256.542007400014,None,256.542007400014,None,256.542007400014,None,right,0.3583117999951355,256.62601980002364,None,256.542007400014,None,257.01059960003477,None,t_rgb,001,2022_Jan_22_1902,contrast,2021.2.3,59.967641451637995,
0.45,20,4,184,3,257.2256032000296,None,257.2256032000296,None,257.2256032000296,None,right,2.0445628000306897,257.30780270003015,None,257.2256032000296,None,259.3756272000028,None,t_rgb,001,2022_Jan_22_1902,contrast,2021.2.3,59.967641451637995,
0.5,20,5,185,4,259.589567499992,None,259.589567499992,None,259.589567499992,None,right,0.496128500031773,259.67254130000947,None,259.589567499992,None,260.1940765000181,None,t_rgb,001,2022_Jan_22_1902,contrast,2021.2.3,59.967641451637995,
0.55,20,6,186,5,260.4054493000149,None,260.4054493000149,None,260.4054493000149,None,right,0.38422270002774894,260.48832460003905,None,260.4054493000149,None,260.8908628000063,None,t_rgb,001,2022_Jan_22_1902,contrast,2021.2.3,59.967641451637995,
0.4,20,7,187,2,261.1051981000346,None,261.1051981000346,None,261.1051981000346,None,right,0.30744310002774,261.18775240000105,None,261.1051981000346,None,261.52325420000125,None,t_rgb,001,2022_Jan_22_1902,contrast,2021.2.3,59.967641451637995,
0.1,20,8,188,0,261.73762650002027,None,261.73762650002027,None,261.73762650002027,None,left,0.5064182999776676,261.82052840001415,None,261.73762650002027,None,262.35570409998763,None,t_rgb,001,2022_Jan_22_1902,contrast,2021.2.3,59.967641451637995,
0.1,21,0,189,0,262.5702859000303,None,262.5702859000303,None,262.5702859000303,None,left,0.3468886000337079,262.65320570004405,None,262.5702859000303,None,263.02224280004157,None,t_rgb,001,2022_Jan_22_1902,contrast,2021.2.3,59.967641451637995,
0.3,21,1,190,1,263.23627240001224,None,263.23627240001224,None,263.23627240001224,None,left,0.5289334999979474,263.3192981000175,None,263.23627240001224,None,263.87153350003064,None,t_rgb,001,2022_Jan_22_1902,contrast,2021.2.3,59.967641451637995,
0.5,21,2,191,4,264.08585979999043,None,264.08585979999043,None,264.08585979999043,None,right,0.51167539996095,264.1687423000112,None,264.08585979999043,None,264.703897600004,None,t_rgb,001,2022_Jan_22_1902,contrast,2021.2.3,59.967641451637995,
0.9,21,3,192,8,264.9184823000105,None,264.9184823000105,None,264.9184823000105,None,right,0.5116668000118807,265.0013382000034,None,264.9184823000105,None,265.5362110999995,None,t_rgb,001,2022_Jan_22_1902,contrast,2021.2.3,59.967641451637995,
0.6,21,4,193,6,265.75071940000635,None,265.75071940000635,None,265.75071940000635,None,right,0.637226200022269,265.8337587999995,None,265.75071940000635,None,266.5018678000197,None,t_rgb,001,2022_Jan_22_1902,contrast,2021.2.3,59.967641451637995,
0.7,21,5,194,7,266.716596400016,None,266.716596400016,None,266.716596400016,None,right,0.6323762999963947,266.7996484999894,None,266.716596400016,None,267.4515190999955,None,t_rgb,001,2022_Jan_22_1902,contrast,2021.2.3,59.967641451637995,
0.4,21,6,195,2,267.6657703000237,None,267.6657703000237,None,267.6657703000237,None,right,1.267018799961079,267.7488543000072,None,267.6657703000237,None,269.03387730004033,None,t_rgb,001,2022_Jan_22_1902,contrast,2021.2.3,59.967641451637995,
0.55,21,7,196,5,269.24798099999316,None,269.24798099999316,None,269.24798099999316,None,right,0.8519109000335447,269.3310566000291,None,269.24798099999316,None,270.21594090003055,None,t_rgb,001,2022_Jan_22_1902,contrast,2021.2.3,59.967641451637995,
0.45,21,8,197,3,270.43037399998866,None,270.43037399998866,None,270.43037399998866,None,right,1.3017373000038788,270.5132409000071,None,270.43037399998866,None,271.8618062000023,None,t_rgb,001,2022_Jan_22_1902,contrast,2021.2.3,59.967641451637995,
0.9,22,0,198,8,272.0628775000223,None,272.0628775000223,None,272.0628775000223,None,right,0.4542176999966614,272.1448977999971,None,272.0628775000223,None,272.6298713000142,None,t_rgb,001,2022_Jan_22_1902,contrast,2021.2.3,59.967641451637995,
0.4,22,1,199,2,272.84457960003056,None,272.84457960003056,None,272.84457960003056,None,left,0.9833756000152789,272.92780490004225,None,272.84457960003056,None,273.9292521000025,None,t_rgb,001,2022_Jan_22_1902,contrast,2021.2.3,59.967641451637995,
0.7,22,2,200,7,274.1436322000227,None,274.1436322000227,None,274.1436322000227,None,right,0.5334817999973893,274.2270792000345,None,274.1436322000227,None,274.77829059999203,None,t_rgb,001,2022_Jan_22_1902,contrast,2021.2.3,59.967641451637995,
0.6,22,3,201,6,274.9928673999966,None,274.9928673999966,None,274.9928673999966,None,right,0.723164800030645,275.0757918000454,None,274.9928673999966,None,275.8274650000385,None,t_rgb,001,2022_Jan_22_1902,contrast,2021.2.3,59.967641451637995,
0.5,22,4,202,4,276.04177770001115,None,276.04177770001115,None,276.04177770001115,None,right,0.7793249000096694,276.1249747000402,None,276.04177770001115,None,276.92679150000913,None,t_rgb,001,2022_Jan_22_1902,contrast,2021.2.3,59.967641451637995,
0.45,22,5,203,3,277.1408413000172,None,277.1408413000172,None,277.1408413000172,None,right,0.7840741999680176,277.223784300033,None,277.1408413000172,None,278.0255763999885,None,t_rgb,001,2022_Jan_22_1902,contrast,2021.2.3,59.967641451637995,
0.55,22,6,204,5,278.23993410001276,None,278.23993410001276,None,278.23993410001276,None,right,0.4839874000172131,278.3231261000037,None,278.23993410001276,None,278.83901360002346,None,t_rgb,001,2022_Jan_22_1902,contrast,2021.2.3,59.967641451637995,
0.1,22,7,205,0,279.04005800001323,None,279.04005800001323,None,279.04005800001323,None,left,0.5661236000014469,279.12224050000077,None,279.04005800001323,None,279.70751000003656,None,t_rgb,001,2022_Jan_22_1902,contrast,2021.2.3,59.967641451637995,
0.3,22,8,206,1,279.9219839000143,None,279.9219839000143,None,279.9219839000143,None,left,0.5469657999929041,280.0048961000284,None,279.9219839000143,None,280.5771142000449,None,t_rgb,001,2022_Jan_22_1902,contrast,2021.2.3,59.967641451637995,
0.1,23,0,207,0,280.78763520001667,None,280.78763520001667,None,280.78763520001667,None,left,0.6562512000091374,280.87072130001616,None,280.78763520001667,None,281.5555938000325,None,t_rgb,001,2022_Jan_22_1902,contrast,2021.2.3,59.967641451637995,
0.7,23,1,208,7,281.77002450003056,None,281.77002450003056,None,281.77002450003056,None,right,0.5062922000070103,281.8530141999945,None,281.77002450003056,None,282.3861609000014,None,t_rgb,001,2022_Jan_22_1902,contrast,2021.2.3,59.967641451637995,
0.4,23,2,209,2,282.58693759999005,None,282.58693759999005,None,282.58693759999005,None,right,1.321679699991364,282.66925890004495,None,282.58693759999005,None,284.02037819998804,None,t_rgb,001,2022_Jan_22_1902,contrast,2021.2.3,59.967641451637995,
0.9,23,3,210,8,284.2349382000393,None,284.2349382000393,None,284.2349382000393,None,right,1.0669293999671936,284.31768840004224,None,284.2349382000393,None,285.40315580001334,None,t_rgb,001,2022_Jan_22_1902,contrast,2021.2.3,59.967641451637995,
0.6,23,4,211,6,285.61795889999485,None,285.61795889999485,None,285.61795889999485,None,right,0.41918729996541515,285.6998705000151,None,285.61795889999485,None,286.15176169999177,None,t_rgb,001,2022_Jan_22_1902,contrast,2021.2.3,59.967641451637995,
0.3,23,5,212,1,286.3663634000113,None,286.3663634000113,None,286.3663634000113,None,left,0.6142655999865383,286.449328000017,None,286.3663634000113,None,287.0843538999907,None,t_rgb,001,2022_Jan_22_1902,contrast,2021.2.3,59.967641451637995,
0.55,23,6,213,5,287.29874810000183,None,287.29874810000183,None,287.29874810000183,None,right,0.5297230000142008,287.3818769000354,None,287.29874810000183,None,287.9335539000458,None,t_rgb,001,2022_Jan_22_1902,contrast,2021.2.3,59.967641451637995,
0.45,23,7,214,3,288.14797839999665,None,288.14797839999665,None,288.14797839999665,None,right,0.5608174999943003,288.231434300018,None,288.14797839999665,None,288.81760170002235,None,t_rgb,001,2022_Jan_22_1902,contrast,2021.2.3,59.967641451637995,
0.5,23,8,215,4,289.03057440003613,None,289.03057440003613,None,289.03057440003613,None,right,0.6052081999951042,289.11366430000635,None,289.03057440003613,None,289.74859650002327,None,t_rgb,001,2022_Jan_22_1902,contrast,2021.2.3,59.967641451637995,
0.4,24,0,216,2,289.96313470002497,None,289.96313470002497,None,289.96313470002497,None,right,0.6176098000141792,290.0460628000437,None,289.96313470002497,None,290.682707400003,None,t_rgb,001,2022_Jan_22_1902,contrast,2021.2.3,59.967641451637995,
0.5,24,1,217,4,290.8956521000364,None,290.8956521000364,None,290.8956521000364,None,right,0.5003161000204273,290.9788256000029,None,290.8956521000364,None,291.49715260002995,None,t_rgb,001,2022_Jan_22_1902,contrast,2021.2.3,59.967641451637995,
0.45,24,2,218,3,291.7115910000284,None,291.7115910000284,None,291.7115910000284,None,right,0.43658989999676123,291.7945467000245,None,291.7115910000284,None,292.2663298000116,None,t_rgb,001,2022_Jan_22_1902,contrast,2021.2.3,59.967641451637995,
0.7,24,3,219,7,292.4775056000217,None,292.4775056000217,None,292.4775056000217,None,right,0.4706237000063993,292.56046160002006,None,292.4775056000217,None,293.06205380003667,None,t_rgb,001,2022_Jan_22_1902,contrast,2021.2.3,59.967641451637995,
0.55,24,4,220,5,293.2769438000396,None,293.2769438000396,None,293.2769438000396,None,right,0.5190499000018463,293.359993399994,None,293.2769438000396,None,293.91137270000763,None,t_rgb,001,2022_Jan_22_1902,contrast,2021.2.3,59.967641451637995,
0.1,24,5,221,0,294.12614549999125,None,294.12614549999125,None,294.12614549999125,None,left,0.5972866999800317,294.209733900032,None,294.12614549999125,None,294.8423855000292,None,t_rgb,001,2022_Jan_22_1902,contrast,2021.2.3,59.967641451637995,
0.9,24,6,222,8,295.0432097000303,None,295.0432097000303,None,295.0432097000303,None,right,0.5954183000139892,295.1249164000037,None,295.0432097000303,None,295.74501370004145,None,t_rgb,001,2022_Jan_22_1902,contrast,2021.2.3,59.967641451637995,
0.3,24,7,223,1,295.9579344000085,None,295.9579344000085,None,295.9579344000085,None,left,0.9435278999735601,296.04086340003414,None,295.9579344000085,None,297.0092978000175,None,t_rgb,001,2022_Jan_22_1902,contrast,2021.2.3,59.967641451637995,
0.6,24,8,224,6,297.2234025000362,None,297.2234025000362,None,297.2234025000362,None,right,0.4458975000306964,297.3062419000198,None,297.2234025000362,None,297.77527949999785,None,t_rgb,001,2022_Jan_22_1902,contrast,2021.2.3,59.967641451637995,
0.4,25,0,225,2,297.98925650003366,None,297.98925650003366,None,297.98925650003366,None,left,1.5669144000275992,298.07224270002916,None,297.98925650003366,None,299.6569613000029,None,t_rgb,001,2022_Jan_22_1902,contrast,2021.2.3,59.967641451637995,
0.9,25,1,226,8,299.87135680002393,None,299.87135680002393,None,299.87135680002393,None,right,0.5815127000096254,299.9540424000006,None,299.87135680002393,None,300.55598720000125,None,t_rgb,001,2022_Jan_22_1902,contrast,2021.2.3,59.967641451637995,
0.1,25,2,227,0,300.7702852000366,None,300.7702852000366,None,300.7702852000366,None,right,0.33758320001652464,300.85330210003303,None,300.7702852000366,None,301.22209310001926,None,t_rgb,001,2022_Jan_22_1902,contrast,2021.2.3,59.967641451637995,
0.3,25,3,228,1,301.4363948000246,None,301.4363948000246,None,301.4363948000246,None,left,4.919960299972445,301.51939610001864,None,301.4363948000246,None,306.46519780001836,None,t_rgb,001,2022_Jan_22_1902,contrast,2021.2.3,59.967641451637995,
0.45,25,4,229,3,306.6648649999988,None,306.6648649999988,None,306.6648649999988,None,left,1.8028773999540135,306.74808370001847,None,306.6648649999988,None,308.5846906999941,None,t_rgb,001,2022_Jan_22_1902,contrast,2021.2.3,59.967641451637995,
0.6,25,5,230,6,308.79726690001553,None,308.79726690001553,None,308.79726690001553,None,right,0.42327329999534413,308.8795388000435,None,308.79726690001553,None,309.33118350000586,None,t_rgb,001,2022_Jan_22_1902,contrast,2021.2.3,59.967641451637995,
0.55,25,6,231,5,309.54580369999167,None,309.54580369999167,None,309.54580369999167,None,right,0.2829288999782875,309.6288612000062,None,309.54580369999167,None,309.93243889999576,None,t_rgb,001,2022_Jan_22_1902,contrast,2021.2.3,59.967641451637995,
0.5,25,7,232,4,310.1452903000172,None,310.1452903000172,None,310.1452903000172,None,right,0.4350095000118017,310.2286240000394,None,310.1452903000172,None,310.6808148000273,None,t_rgb,001,2022_Jan_22_1902,contrast,2021.2.3,59.967641451637995,
0.7,25,8,233,7,310.89470970002003,None,310.89470970002003,None,310.89470970002003,None,right,0.5663597999955527,310.9778059000382,None,310.89470970002003,None,311.564974500041,None,t_rgb,001,2022_Jan_22_1902,contrast,2021.2.3,59.967641451637995,
0.55,26,0,234,5,311.7773236000212,None,311.7773236000212,None,311.7773236000212,None,right,0.6604699000017717,311.86046520003583,None,311.7773236000212,None,312.54560559999663,None,t_rgb,001,2022_Jan_22_1902,contrast,2021.2.3,59.967641451637995,
0.5,26,1,235,4,312.75962060003076,None,312.75962060003076,None,312.75962060003076,None,right,0.6679634000174701,312.8429540999932,None,312.75962060003076,None,313.5278798000072,None,t_rgb,001,2022_Jan_22_1902,contrast,2021.2.3,59.967641451637995,
0.45,26,2,236,3,313.74204889999237,None,313.74204889999237,None,313.74204889999237,None,right,0.5671152999857441,313.8253444000147,None,313.74204889999237,None,314.41081800003303,None,t_rgb,001,2022_Jan_22_1902,contrast,2021.2.3,59.967641451637995,
0.6,26,3,237,6,314.6247648000135,None,314.6247648000135,None,314.6247648000135,None,right,2.0351063999696635,314.70779850002145,None,314.6247648000135,None,316.7747994000092,None,t_rgb,001,2022_Jan_22_1902,contrast,2021.2.3,59.967641451637995,
0.9,26,4,238,8,316.98922049999237,None,316.98922049999237,None,316.98922049999237,None,right,0.583847300033085,317.07243570004357,None,316.98922049999237,None,317.67434420000063,None,t_rgb,001,2022_Jan_22_1902,contrast,2021.2.3,59.967641451637995,
0.3,26,5,239,1,317.88864200003445,None,317.88864200003445,None,317.88864200003445,None,left,0.5803529999684542,317.97168900002725,None,317.88864200003445,None,318.5733484000084,None,t_rgb,001,2022_Jan_22_1902,contrast,2021.2.3,59.967641451637995,
0.4,26,6,240,2,318.7875673000235,None,318.7875673000235,None,318.7875673000235,None,right,2.593154800008051,318.87104160001036,None,318.7875673000235,None,321.48757789999945,None,t_rgb,001,2022_Jan_22_1902,contrast,2021.2.3,59.967641451637995,
0.7,26,7,241,7,321.701913100027,None,321.701913100027,None,321.701913100027,None,right,0.3833937000017613,321.7852069000364,None,321.701913100027,None,322.1869394000387,None,t_rgb,001,2022_Jan_22_1902,contrast,2021.2.3,59.967641451637995,
0.1,26,8,242,0,322.40129060001345,None,322.40129060001345,None,322.40129060001345,None,left,0.6108938999823295,322.4844490000396,None,322.40129060001345,None,323.1172059000237,None,t_rgb,001,2022_Jan_22_1902,contrast,2021.2.3,59.967641451637995,
0.7,27,0,243,7,323.3180408999906,None,323.3180408999906,None,323.3180408999906,None,right,0.4801543999928981,323.40023190004285,None,323.3180408999906,None,323.9021342000342,None,t_rgb,001,2022_Jan_22_1902,contrast,2021.2.3,59.967641451637995,
0.6,27,1,244,6,324.1162812000257,None,324.1162812000257,None,324.1162812000257,None,right,0.6231972000095993,324.1996713000117,None,324.1162812000257,None,324.8512978000217,None,t_rgb,001,2022_Jan_22_1902,contrast,2021.2.3,59.967641451637995,
0.5,27,2,245,4,325.06547810003394,None,325.06547810003394,None,325.06547810003394,None,right,0.8747213000315242,325.14871209999546,None,325.06547810003394,None,326.050259700045,None,t_rgb,001,2022_Jan_22_1902,contrast,2021.2.3,59.967641451637995,
0.45,27,3,246,3,326.26473430002807,None,326.26473430002807,None,326.26473430002807,None,right,0.46083070000167936,326.34766850003507,None,326.26473430002807,None,326.83450480003376,None,t_rgb,001,2022_Jan_22_1902,contrast,2021.2.3,59.967641451637995,
0.4,27,4,247,2,327.0495627000346,None,327.0495627000346,None,327.0495627000346,None,left,3.4843982000020333,327.13066260004416,None,327.0495627000346,None,330.6459623000119,None,t_rgb,001,2022_Jan_22_1902,contrast,2021.2.3,59.967641451637995,
0.9,27,5,248,8,330.86098340002354,None,330.86098340002354,None,330.86098340002354,None,right,0.3928197000059299,330.94371630001115,None,330.86098340002354,None,331.3648900000262,None,t_rgb,001,2022_Jan_22_1902,contrast,2021.2.3,59.967641451637995,
0.3,27,6,249,1,331.57699480000883,None,331.57699480000883,None,331.57699480000883,None,left,1.1964621000224724,331.65994680003496,None,331.57699480000883,None,332.87774940003874,None,t_rgb,001,2022_Jan_22_1902,contrast,2021.2.3,59.967641451637995,
0.1,27,7,250,0,333.0919795000227,None,333.0919795000227,None,333.0919795000227,None,right,0.2717516000266187,333.1751996999956,None,333.0919795000227,None,333.4769985000021,None,t_rgb,001,2022_Jan_22_1902,contrast,2021.2.3,59.967641451637995,
0.55,27,8,251,5,333.69167880003806,None,333.69167880003806,None,333.69167880003806,None,right,0.8105167999747209,333.7746012000134,None,333.69167880003806,None,334.6095964999986,None,t_rgb,001,2022_Jan_22_1902,contrast,2021.2.3,59.967641451637995,
0.6,28,0,252,6,334.8238400000264,None,334.8238400000264,None,334.8238400000264,None,right,0.7640891000046395,334.9070490000304,None,334.8238400000264,None,335.70818970003165,None,t_rgb,001,2022_Jan_22_1902,contrast,2021.2.3,59.967641451637995,
0.1,28,1,253,0,335.92308310000226,None,335.92308310000226,None,335.92308310000226,None,left,0.6112617999897338,336.00592000002507,None,335.92308310000226,None,336.6417238000431,None,t_rgb,001,2022_Jan_22_1902,contrast,2021.2.3,59.967641451637995,
0.7,28,2,254,7,336.8558850000263,None,336.8558850000263,None,336.8558850000263,None,right,0.4941531999502331,336.9384508000221,None,336.8558850000263,None,337.4585425000405,None,t_rgb,001,2022_Jan_22_1902,contrast,2021.2.3,59.967641451637995,
0.55,28,3,255,5,337.6713521000347,None,337.6713521000347,None,337.6713521000347,None,right,0.8619989999569952,337.754525700002,None,337.6713521000347,None,338.639369200042,None,t_rgb,001,2022_Jan_22_1902,contrast,2021.2.3,59.967641451637995,
0.9,28,4,256,8,338.853753900039,None,338.853753900039,None,338.853753900039,None,right,0.6863399999565445,338.936746100022,None,338.853753900039,None,339.6551107999985,None,t_rgb,001,2022_Jan_22_1902,contrast,2021.2.3,59.967641451637995,
0.3,28,5,257,1,339.8697191000101,None,339.8697191000101,None,339.8697191000101,None,left,0.6792897999985144,339.95299240003806,None,339.8697191000101,None,340.6547021000297,None,t_rgb,001,2022_Jan_22_1902,contrast,2021.2.3,59.967641451637995,
0.4,28,6,258,2,340.8686377000413,None,340.8686377000413,None,340.8686377000413,None,right,0.255217999976594,340.95176190003986,None,340.8686377000413,None,341.23931520001497,None,t_rgb,001,2022_Jan_22_1902,contrast,2021.2.3,59.967641451637995,
0.5,28,7,259,4,341.4517087000422,None,341.4517087000422,None,341.4517087000422,None,right,0.8103020000271499,341.53441230003955,None,341.4517087000422,None,342.369955400005,None,t_rgb,001,2022_Jan_22_1902,contrast,2021.2.3,59.967641451637995,
0.45,28,8,260,3,342.58379840001,None,342.58379840001,None,342.58379840001,None,right,0.5880606999853626,342.66678309999406,None,342.58379840001,None,343.28503630001796,None,t_rgb,001,2022_Jan_22_1902,contrast,2021.2.3,59.967641451637995,
0.45,29,0,261,3,343.4996858999948,None,343.4996858999948,None,343.4996858999948,None,right,0.48831719998270273,343.5826400000369,None,343.4996858999948,None,344.10103640001034,None,t_rgb,001,2022_Jan_22_1902,contrast,2021.2.3,59.967641451637995,
0.3,29,1,262,1,344.3157418000046,None,344.3157418000046,None,344.3157418000046,None,right,0.2646000000531785,344.3988554000389,None,344.3157418000046,None,344.68405859998893,None,t_rgb,001,2022_Jan_22_1902,contrast,2021.2.3,59.967641451637995,
0.6,29,2,263,6,344.89866170001915,None,344.89866170001915,None,344.89866170001915,None,right,0.5952288000262342,344.9814158999943,None,344.89866170001915,None,345.59999630000675,None,t_rgb,001,2022_Jan_22_1902,contrast,2021.2.3,59.967641451637995,
0.9,29,3,264,8,345.81428250001045,None,345.81428250001045,None,345.81428250001045,None,right,0.4630682000424713,345.8973315000185,None,345.81428250001045,None,346.3830805000034,None,t_rgb,001,2022_Jan_22_1902,contrast,2021.2.3,59.967641451637995,
0.7,29,4,265,7,346.59932830004254,None,346.59932830004254,None,346.59932830004254,None,right,0.4004138999735005,346.6800230999943,None,346.59932830004254,None,347.1004302999936,None,t_rgb,001,2022_Jan_22_1902,contrast,2021.2.3,59.967641451637995,
0.55,29,5,266,5,347.3133029000019,None,347.3133029000019,None,347.3133029000019,None,right,0.35470369999529794,347.3962898000027,None,347.3133029000019,None,347.78153790003853,None,t_rgb,001,2022_Jan_22_1902,contrast,2021.2.3,59.967641451637995,
0.5,29,6,267,4,347.995709800045,None,347.995709800045,None,347.995709800045,None,right,0.45613140001660213,348.0789400000358,None,347.995709800045,None,348.56400800001575,None,t_rgb,001,2022_Jan_22_1902,contrast,2021.2.3,59.967641451637995,
0.4,29,7,268,2,348.7784760000068,None,348.7784760000068,None,348.7784760000068,None,right,0.7296775999711826,348.86142219998874,None,348.7784760000068,None,349.61313080001855,None,t_rgb,001,2022_Jan_22_1902,contrast,2021.2.3,59.967641451637995,
0.1,29,8,269,0,349.82749930000864,None,349.82749930000864,None,349.82749930000864,None,left,0.48068359994795173,349.91070000000764,None,349.82749930000864,None,350.4125218000263,None,t_rgb,001,2022_Jan_22_1902,contrast,2021.2.3,59.967641451637995,
