rgb_luminance,trials.thisRepN,trials.thisTrialN,trials.thisN,trials.thisIndex,patch_background.started,patch_background.stopped,patch_foreground.started,patch_foreground.stopped,patch_test.started,patch_test.stopped,key_response.keys,key_response.rt,key_response.started,key_response.stopped,text_task.started,text_task.stopped,text.started,text.stopped,participant,session,date,expName,psychopyVersion,frameRate,
0.1,0,0,0,0,105.03127100004349,None,105.03127100004349,None,105.03127100004349,None,right,2.8930370999732986,105.11679410003126,None,105.03127100004349,None,108.0361151000252,None,e_rgb,001,2022_Jan_23_1109,contrast,2021.2.3,60.10702657477622,
0.55,0,1,1,5,108.24762970011216,None,108.24762970011216,None,108.24762970011216,None,left,5.900791099993512,108.33082860009745,None,108.24762970011216,None,114.26275430002715,None,e_rgb,001,2022_Jan_23_1109,contrast,2021.2.3,60.10702657477622,
0.4,0,2,2,2,114.47564890002832,None,114.47564890002832,None,114.47564890002832,None,left,1.4333730000071228,114.55861220008228,None,114.47564890002832,None,116.00973730010446,None,e_rgb,001,2022_Jan_23_1109,contrast,2021.2.3,60.10702657477622,
0.9,0,3,3,8,116.2240614000475,None,116.2240614000475,None,116.2240614000475,None,right,0.6462531000142917,116.30712210002821,None,116.2240614000475,None,116.97619890002534,None,e_rgb,001,2022_Jan_23_1109,contrast,2021.2.3,60.10702657477622,
0.6,0,4,4,6,117.1903949000407,None,117.1903949000407,None,117.1903949000407,None,right,0.5449595000827685,117.27313780004624,None,117.1903949000407,None,117.84138980007265,None,e_rgb,001,2022_Jan_23_1109,contrast,2021.2.3,60.10702657477622,
0.3,0,5,5,1,118.0564378000563,None,118.0564378000563,None,118.0564378000563,None,left,1.484951699967496,118.13873020000756,None,118.0564378000563,None,119.65436400007457,None,e_rgb,001,2022_Jan_23_1109,contrast,2021.2.3,60.10702657477622,
0.5,0,6,6,4,119.85490680008661,None,119.85490680008661,None,119.85490680008661,None,right,1.0304340000730008,119.93730930006132,None,119.85490680008661,None,121.00553230009973,None,e_rgb,001,2022_Jan_23_1109,contrast,2021.2.3,60.10702657477622,
0.45,0,7,7,3,121.22030060004909,None,121.22030060004909,None,121.22030060004909,None,right,0.5944701000116765,121.3031336000422,None,121.22030060004909,None,121.92099600005895,None,e_rgb,001,2022_Jan_23_1109,contrast,2021.2.3,60.10702657477622,
0.7,0,8,8,7,122.13585570000578,None,122.13585570000578,None,122.13585570000578,None,right,0.7332345000468194,122.21881800005212,None,122.13585570000578,None,122.97022620006464,None,e_rgb,001,2022_Jan_23_1109,contrast,2021.2.3,60.10702657477622,
0.1,1,0,9,0,123.18500210007187,None,123.18500210007187,None,123.18500210007187,None,left,1.0601669999305159,123.26777280005626,None,123.18500210007187,None,124.35021270008292,None,e_rgb,001,2022_Jan_23_1109,contrast,2021.2.3,60.10702657477622,
0.3,1,1,10,1,124.5533564001089,None,124.5533564001089,None,124.5533564001089,None,right,0.6854457999579608,124.63442510005552,None,124.5533564001089,None,125.34934350010008,None,e_rgb,001,2022_Jan_23_1109,contrast,2021.2.3,60.10702657477622,
0.55,1,2,11,5,125.55020880000666,None,125.55020880000666,None,125.55020880000666,None,right,0.6323830999899656,125.63233210006729,None,125.55020880000666,None,126.28668910008855,None,e_rgb,001,2022_Jan_23_1109,contrast,2021.2.3,60.10702657477622,
0.9,1,3,12,8,126.49844390002545,None,126.49844390002545,None,126.49844390002545,None,right,0.5151438000611961,126.58170570002403,None,126.49844390002545,None,127.11792700004298,None,e_rgb,001,2022_Jan_23_1109,contrast,2021.2.3,60.10702657477622,
0.5,1,4,13,4,127.33263080008328,None,127.33263080008328,None,127.33263080008328,None,right,0.43366310000419617,127.41471640008967,None,127.33263080008328,None,127.87230710010044,None,e_rgb,001,2022_Jan_23_1109,contrast,2021.2.3,60.10702657477622,
0.7,1,5,14,7,128.0817260000622,None,128.0817260000622,None,128.0817260000622,None,right,0.48336019995622337,128.16417930007447,None,128.0817260000622,None,128.66534880001564,None,e_rgb,001,2022_Jan_23_1109,contrast,2021.2.3,60.10702657477622,
0.6,1,6,15,6,128.87964720011223,None,128.87964720011223,None,128.87964720011223,None,right,0.7726334000471979,128.96294270001817,None,128.87964720011223,None,129.76763340004254,None,e_rgb,001,2022_Jan_23_1109,contrast,2021.2.3,60.10702657477622,
0.4,1,7,16,2,129.98066090000793,None,129.98066090000793,None,129.98066090000793,None,left,0.8591482999036089,130.06232550006825,None,129.98066090000793,None,130.94973770005163,None,e_rgb,001,2022_Jan_23_1109,contrast,2021.2.3,60.10702657477622,
0.45,1,8,17,3,131.16130210005213,None,131.16130210005213,None,131.16130210005213,None,right,0.7168225001078099,131.24448560003657,None,131.16130210005213,None,131.9795135000022,None,e_rgb,001,2022_Jan_23_1109,contrast,2021.2.3,60.10702657477622,
0.3,2,0,18,1,132.19391060003545,None,132.19391060003545,None,132.19391060003545,None,right,0.8513904999708757,132.27652250009123,None,132.19391060003545,None,133.16150300006848,None,e_rgb,001,2022_Jan_23_1109,contrast,2021.2.3,60.10702657477622,
0.4,2,1,19,2,133.37601410003845,None,133.37601410003845,None,133.37601410003845,None,right,0.6624587998958305,133.4589011000935,None,133.37601410003845,None,134.15155770001002,None,e_rgb,001,2022_Jan_23_1109,contrast,2021.2.3,60.10702657477622,
0.5,2,2,20,4,134.35975110006984,None,134.35975110006984,None,134.35975110006984,None,right,0.511616799980402,134.44158130011056,None,134.35975110006984,None,134.97678770008497,None,e_rgb,001,2022_Jan_23_1109,contrast,2021.2.3,60.10702657477622,
0.6,2,3,21,6,135.19099630007986,None,135.19099630007986,None,135.19099630007986,None,right,0.3832993999822065,135.27407910011243,None,135.19099630007986,None,135.67596010002308,None,e_rgb,001,2022_Jan_23_1109,contrast,2021.2.3,60.10702657477622,
0.1,2,4,22,0,135.89036580000538,None,135.89036580000538,None,135.89036580000538,None,left,0.467685499927029,135.97326110000722,None,135.89036580000538,None,136.45879640011117,None,e_rgb,001,2022_Jan_23_1109,contrast,2021.2.3,60.10702657477622,
0.55,2,5,23,5,136.67294530000072,None,136.67294530000072,None,136.67294530000072,None,right,0.5333316000178456,136.7558568000095,None,136.67294530000072,None,137.30804030003492,None,e_rgb,001,2022_Jan_23_1109,contrast,2021.2.3,60.10702657477622,
0.7,2,6,24,7,137.52248010004405,None,137.52248010004405,None,137.52248010004405,None,right,0.3703108000336215,137.60555330000352,None,137.52248010004405,None,138.01643110008445,None,e_rgb,001,2022_Jan_23_1109,contrast,2021.2.3,60.10702657477622,
0.9,2,7,25,8,138.22315570001956,None,138.22315570001956,None,138.22315570001956,None,right,0.4073090999154374,138.30469070002437,None,138.22315570001956,None,138.73986950004473,None,e_rgb,001,2022_Jan_23_1109,contrast,2021.2.3,60.10702657477622,
0.45,2,8,26,3,138.954002100043,None,138.954002100043,None,138.954002100043,None,right,0.44348399993032217,139.03796560002957,None,138.954002100043,None,139.5102334000403,None,e_rgb,001,2022_Jan_23_1109,contrast,2021.2.3,60.10702657477622,
0.6,3,0,27,6,139.7206400000723,None,139.7206400000723,None,139.7206400000723,None,right,0.4885867000557482,139.80953330011107,None,139.7206400000723,None,140.32181160000619,None,e_rgb,001,2022_Jan_23_1109,contrast,2021.2.3,60.10702657477622,
0.55,3,1,28,5,140.5362851000391,None,140.5362851000391,None,140.5362851000391,None,right,0.3334048999240622,140.61935300007463,None,140.5362851000391,None,140.9717443000991,None,e_rgb,001,2022_Jan_23_1109,contrast,2021.2.3,60.10702657477622,
0.4,3,2,29,2,141.18635780003387,None,141.18635780003387,None,141.18635780003387,None,left,1.477077699964866,141.26930950011592,None,141.18635780003387,None,142.77077990002,None,e_rgb,001,2022_Jan_23_1109,contrast,2021.2.3,60.10702657477622,
0.5,3,3,30,4,142.9846350000007,None,142.9846350000007,None,142.9846350000007,None,right,1.3563408999470994,143.0676766000688,None,142.9846350000007,None,144.4515543000307,None,e_rgb,001,2022_Jan_23_1109,contrast,2021.2.3,60.10702657477622,
0.7,3,4,31,7,144.66588080010843,None,144.66588080010843,None,144.66588080010843,None,right,0.6028943000128493,144.7489364000503,None,144.66588080010843,None,145.3872771000024,None,e_rgb,001,2022_Jan_23_1109,contrast,2021.2.3,60.10702657477622,
0.45,3,5,32,3,145.59860750008374,None,145.59860750008374,None,145.59860750008374,None,left,0.5186087000183761,145.68132840003818,None,145.59860750008374,None,146.21680270007346,None,e_rgb,001,2022_Jan_23_1109,contrast,2021.2.3,60.10702657477622,
0.3,3,6,33,1,146.4309615000384,None,146.4309615000384,None,146.4309615000384,None,left,0.501710900105536,146.51412490010262,None,146.4309615000384,None,147.05590570007917,None,e_rgb,001,2022_Jan_23_1109,contrast,2021.2.3,60.10702657477622,
0.1,3,7,34,0,147.26373700005934,None,147.26373700005934,None,147.26373700005934,None,left,0.37274579994846135,147.3469181000255,None,147.26373700005934,None,147.74868770001922,None,e_rgb,001,2022_Jan_23_1109,contrast,2021.2.3,60.10702657477622,
0.9,3,8,35,8,147.96324060007464,None,147.96324060007464,None,147.96324060007464,None,right,0.42732839996460825,148.04662480007391,None,147.96324060007464,None,148.4980267001083,None,e_rgb,001,2022_Jan_23_1109,contrast,2021.2.3,60.10702657477622,
0.45,4,0,36,3,148.7124586000573,None,148.7124586000573,None,148.7124586000573,None,right,0.39633449993561953,148.79552530008368,None,148.7124586000573,None,149.230863600038,None,e_rgb,001,2022_Jan_23_1109,contrast,2021.2.3,60.10702657477622,
0.5,4,1,37,4,149.44596720009577,None,149.44596720009577,None,149.44596720009577,None,right,0.47921290004160255,149.52937950007617,None,149.44596720009577,None,150.03268640011083,None,e_rgb,001,2022_Jan_23_1109,contrast,2021.2.3,60.10702657477622,
0.1,4,2,38,0,150.24592270003632,None,150.24592270003632,None,150.24592270003632,None,left,0.5914423000067472,150.33017320011277,None,150.24592270003632,None,150.94971650000662,None,e_rgb,001,2022_Jan_23_1109,contrast,2021.2.3,60.10702657477622,
0.4,4,3,39,2,151.16128580004442,None,151.16128580004442,None,151.16128580004442,None,right,0.6995311999926344,151.24432970001362,None,151.16128580004442,None,151.96198210003786,None,e_rgb,001,2022_Jan_23_1109,contrast,2021.2.3,60.10702657477622,
0.3,4,4,40,1,152.17603580001742,None,152.17603580001742,None,152.17603580001742,None,right,0.5337635999312624,152.25939510005992,None,152.17603580001742,None,152.81130250007845,None,e_rgb,001,2022_Jan_23_1109,contrast,2021.2.3,60.10702657477622,
0.6,4,5,41,6,153.02570230001584,None,153.02570230001584,None,153.02570230001584,None,right,0.6926602000603452,153.0933068000013,None,153.02570230001584,None,153.8099981000414,None,e_rgb,001,2022_Jan_23_1109,contrast,2021.2.3,60.10702657477622,
0.9,4,6,42,8,154.02438040007837,None,154.02438040007837,None,154.02438040007837,None,right,0.6215185999171808,154.10746570001356,None,154.02438040007837,None,154.75025310006458,None,e_rgb,001,2022_Jan_23_1109,contrast,2021.2.3,60.10702657477622,
0.55,4,7,43,5,154.95850750000682,None,154.95850750000682,None,154.95850750000682,None,left,1.0291615999303758,155.04408530006185,None,154.95850750000682,None,156.0916212000884,None,e_rgb,001,2022_Jan_23_1109,contrast,2021.2.3,60.10702657477622,
0.7,4,8,44,7,156.30561600008514,None,156.30561600008514,None,156.30561600008514,None,right,0.4851055999752134,156.38894960004836,None,156.30561600008514,None,156.89318080001976,None,e_rgb,001,2022_Jan_23_1109,contrast,2021.2.3,60.10702657477622,
0.6,5,0,45,6,157.10654010006692,None,157.10654010006692,None,157.10654010006692,None,right,1.493181600002572,157.18901360000018,None,157.10654010006692,None,158.70726560009643,None,e_rgb,001,2022_Jan_23_1109,contrast,2021.2.3,60.10702657477622,
0.55,5,1,46,5,158.92100230010692,None,158.92100230010692,None,158.92100230010692,None,right,0.5256229999940842,159.00387800007593,None,158.92100230010692,None,159.55540690000635,None,e_rgb,001,2022_Jan_23_1109,contrast,2021.2.3,60.10702657477622,
0.1,5,2,47,0,159.76964680000674,None,159.76964680000674,None,159.76964680000674,None,left,0.5711902000475675,159.85247990000062,None,159.76964680000674,None,160.45390670001507,None,e_rgb,001,2022_Jan_23_1109,contrast,2021.2.3,60.10702657477622,
0.5,5,3,48,4,160.66968610009644,None,160.66968610009644,None,160.66968610009644,None,right,1.0961470999754965,160.75171340000816,None,160.66968610009644,None,161.87004340009298,None,e_rgb,001,2022_Jan_23_1109,contrast,2021.2.3,60.10702657477622,
0.3,5,4,49,1,162.08512450009584,None,162.08512450009584,None,162.08512450009584,None,left,0.9296401999890804,162.16726340004243,None,162.08512450009584,None,163.11915910011157,None,e_rgb,001,2022_Jan_23_1109,contrast,2021.2.3,60.10702657477622,
0.45,5,5,50,3,163.33322150004096,None,163.33322150004096,None,163.33322150004096,None,right,0.6090602999320254,163.41619980009273,None,163.33322150004096,None,164.0526542000007,None,e_rgb,001,2022_Jan_23_1109,contrast,2021.2.3,60.10702657477622,
0.4,5,6,51,2,164.26559130009264,None,164.26559130009264,None,164.26559130009264,None,right,0.6511814000550658,164.34856730001047,None,164.26559130009264,None,165.01695290009957,None,e_rgb,001,2022_Jan_23_1109,contrast,2021.2.3,60.10702657477622,
0.7,5,7,52,7,165.23132170003373,None,165.23132170003373,None,165.23132170003373,None,right,0.7278655000263825,165.31431650009472,None,165.23132170003373,None,166.0662257000804,None,e_rgb,001,2022_Jan_23_1109,contrast,2021.2.3,60.10702657477622,
0.9,5,8,53,8,166.28039740002714,None,166.28039740002714,None,166.28039740002714,None,right,0.4441619999706745,166.36355540005025,None,166.28039740002714,None,166.8297322000144,None,e_rgb,001,2022_Jan_23_1109,contrast,2021.2.3,60.10702657477622,
0.55,6,0,54,5,167.02977960009594,None,167.02977960009594,None,167.02977960009594,None,right,0.6226273999782279,167.11300300003495,None,167.02977960009594,None,167.76824700005818,None,e_rgb,001,2022_Jan_23_1109,contrast,2021.2.3,60.10702657477622,
0.3,6,1,55,1,167.9810576000018,None,167.9810576000018,None,167.9810576000018,None,left,0.6980326001066715,168.06255240004975,None,167.9810576000018,None,168.78222510009073,None,e_rgb,001,2022_Jan_23_1109,contrast,2021.2.3,60.10702657477622,
0.45,6,2,56,3,168.9951740000397,None,168.9951740000397,None,168.9951740000397,None,right,0.6753896999871358,169.07847910001874,None,168.9951740000397,None,169.77992240001913,None,e_rgb,001,2022_Jan_23_1109,contrast,2021.2.3,60.10702657477622,
0.7,6,3,57,7,169.99408850003965,None,169.99408850003965,None,169.99408850003965,None,right,0.7958022999810055,170.07769430009648,None,169.99408850003965,None,170.8954611000372,None,e_rgb,001,2022_Jan_23_1109,contrast,2021.2.3,60.10702657477622,
0.9,6,4,58,8,171.11001160007436,None,171.11001160007436,None,171.11001160007436,None,right,0.4476248000282794,171.19278600008693,None,171.11001160007436,None,171.66102110000793,None,e_rgb,001,2022_Jan_23_1109,contrast,2021.2.3,60.10702657477622,
0.6,6,5,59,6,171.87545040005352,None,171.87545040005352,None,171.87545040005352,None,right,1.4105939000146464,171.95877790008672,None,171.87545040005352,None,173.39563310006633,None,e_rgb,001,2022_Jan_23_1109,contrast,2021.2.3,60.10702657477622,
0.4,6,6,60,2,173.61043070000596,None,173.61043070000596,None,173.61043070000596,None,left,0.5091794000472873,173.6920047000749,None,173.61043070000596,None,174.22661720006727,None,e_rgb,001,2022_Jan_23_1109,contrast,2021.2.3,60.10702657477622,
0.5,6,7,61,4,174.44010740006343,None,174.44010740006343,None,174.44010740006343,None,left,1.0044702000450343,174.52322400000412,None,174.44010740006343,None,175.55861460010055,None,e_rgb,001,2022_Jan_23_1109,contrast,2021.2.3,60.10702657477622,
0.1,6,8,62,0,175.7725294000702,None,175.7725294000702,None,175.7725294000702,None,left,0.4722537000197917,175.85547400009818,None,175.7725294000702,None,176.36655090004206,None,e_rgb,001,2022_Jan_23_1109,contrast,2021.2.3,60.10702657477622,
0.45,7,0,63,3,176.57473980006762,None,176.57473980006762,None,176.57473980006762,None,right,0.7281832000007853,176.656490100082,None,176.57473980006762,None,177.4135619000299,None,e_rgb,001,2022_Jan_23_1109,contrast,2021.2.3,60.10702657477622,
0.9,7,1,64,8,177.6204586001113,None,177.6204586001113,None,177.6204586001113,None,right,1.7437968000303954,177.68857520003803,None,177.6204586001113,None,179.45471580000594,None,e_rgb,001,2022_Jan_23_1109,contrast,2021.2.3,60.10702657477622,
0.7,7,2,65,7,179.6687483000569,None,179.6687483000569,None,179.6687483000569,None,right,0.3840090000303462,179.75191290001385,None,179.6687483000569,None,180.16814360010903,None,e_rgb,001,2022_Jan_23_1109,contrast,2021.2.3,60.10702657477622,
0.1,7,3,66,0,180.36891730001662,None,180.36891730001662,None,180.36891730001662,None,left,0.6621907000662759,180.45134800008964,None,180.36891730001662,None,181.13663980003912,None,e_rgb,001,2022_Jan_23_1109,contrast,2021.2.3,60.10702657477622,
0.6,7,4,67,6,181.3505139000481,None,181.3505139000481,None,181.3505139000481,None,right,1.565802299999632,181.43409450002946,None,181.3505139000481,None,183.039421100053,None,e_rgb,001,2022_Jan_23_1109,contrast,2021.2.3,60.10702657477622,
0.55,7,5,68,5,183.2522993000457,None,183.2522993000457,None,183.2522993000457,None,right,0.6750919000478461,183.33397660008632,None,183.2522993000457,None,184.03152390010655,None,e_rgb,001,2022_Jan_23_1109,contrast,2021.2.3,60.10702657477622,
0.5,7,6,69,4,184.23311830009334,None,184.23311830009334,None,184.23311830009334,None,right,0.6349791999673471,184.31677740009036,None,184.23311830009334,None,184.98774170002434,None,e_rgb,001,2022_Jan_23_1109,contrast,2021.2.3,60.10702657477622,
0.3,7,7,70,1,185.20026580011472,None,185.20026580011472,None,185.20026580011472,None,left,0.647973999963142,185.28053300001193,None,185.20026580011472,None,185.9489062000066,None,e_rgb,001,2022_Jan_23_1109,contrast,2021.2.3,60.10702657477622,
0.4,7,8,71,2,186.16305950004607,None,186.16305950004607,None,186.16305950004607,None,right,0.8498559999279678,186.24603850010317,None,186.16305950004607,None,187.11803350003902,None,e_rgb,001,2022_Jan_23_1109,contrast,2021.2.3,60.10702657477622,
0.4,8,0,72,2,187.32904470001813,None,187.32904470001813,None,187.32904470001813,None,left,1.652047099894844,187.4118025000207,None,187.32904470001813,None,189.08142660011072,None,e_rgb,001,2022_Jan_23_1109,contrast,2021.2.3,60.10702657477622,
0.1,8,1,73,0,189.29665830009617,None,189.29665830009617,None,189.29665830009617,None,left,0.9491935999831185,189.37849470006768,None,189.29665830009617,None,190.34495060006157,None,e_rgb,001,2022_Jan_23_1109,contrast,2021.2.3,60.10702657477622,
0.5,8,2,74,4,190.5595073000295,None,190.5595073000295,None,190.5595073000295,None,right,0.6629177000140771,190.6423055001069,None,190.5595073000295,None,191.3272984001087,None,e_rgb,001,2022_Jan_23_1109,contrast,2021.2.3,60.10702657477622,
0.6,8,3,75,6,191.54176910000388,None,191.54176910000388,None,191.54176910000388,None,right,0.5923694999655709,191.62476830009837,None,191.54176910000388,None,192.25764870003331,None,e_rgb,001,2022_Jan_23_1109,contrast,2021.2.3,60.10702657477622,
0.9,8,4,76,8,192.45846110000275,None,192.45846110000275,None,192.45846110000275,None,right,0.4771142000099644,192.540531000006,None,192.45846110000275,None,193.0439688001061,None,e_rgb,001,2022_Jan_23_1109,contrast,2021.2.3,60.10702657477622,
0.45,8,5,77,3,193.25931630004197,None,193.25931630004197,None,193.25931630004197,None,right,2.2180666000349447,193.34163450007327,None,193.25931630004197,None,195.59138780005742,None,e_rgb,001,2022_Jan_23_1109,contrast,2021.2.3,60.10702657477622,
0.7,8,6,78,7,195.80687590001617,None,195.80687590001617,None,195.80687590001617,None,right,2.2793179999571294,195.88912640011404,None,195.80687590001617,None,198.19096650008578,None,e_rgb,001,2022_Jan_23_1109,contrast,2021.2.3,60.10702657477622,
0.55,8,7,79,5,198.4025593000697,None,198.4025593000697,None,198.4025593000697,None,right,0.4509912000503391,198.48558930004947,None,198.4025593000697,None,198.95453450002242,None,e_rgb,001,2022_Jan_23_1109,contrast,2021.2.3,60.10702657477622,
0.3,8,8,80,1,199.16865630005486,None,199.16865630005486,None,199.16865630005486,None,left,1.3478057999163866,199.25184250005987,None,199.16865630005486,None,200.63634420000017,None,e_rgb,001,2022_Jan_23_1109,contrast,2021.2.3,60.10702657477622,
0.4,9,0,81,2,200.8502741000848,None,200.8502741000848,None,200.8502741000848,None,left,0.9160331999883056,200.93345190002583,None,200.8502741000848,None,201.86801820003893,None,e_rgb,001,2022_Jan_23_1109,contrast,2021.2.3,60.10702657477622,
0.3,9,1,82,1,202.08335220010486,None,202.08335220010486,None,202.08335220010486,None,left,0.6762938000028953,202.1655254000798,None,202.08335220010486,None,202.86719980009366,None,e_rgb,001,2022_Jan_23_1109,contrast,2021.2.3,60.10702657477622,
0.55,9,2,83,5,203.08247850008775,None,203.08247850008775,None,203.08247850008775,None,right,0.6350380999501795,203.16482440009713,None,203.08247850008775,None,203.81654450006317,None,e_rgb,001,2022_Jan_23_1109,contrast,2021.2.3,60.10702657477622,
0.6,9,3,84,6,204.031140300096,None,204.031140300096,None,204.031140300096,None,right,0.6786404000595212,204.11424330004957,None,204.031140300096,None,204.81644930003677,None,e_rgb,001,2022_Jan_23_1109,contrast,2021.2.3,60.10702657477622,
0.45,9,4,85,3,205.03016660001595,None,205.03016660001595,None,205.03016660001595,None,right,0.7016837999690324,205.11405580001883,None,205.03016660001595,None,205.8474338001106,None,e_rgb,001,2022_Jan_23_1109,contrast,2021.2.3,60.10702657477622,
0.9,9,5,86,8,206.06268790003378,None,206.06268790003378,None,206.06268790003378,None,right,0.6632291000569239,206.1456192000769,None,206.06268790003378,None,206.83042440004647,None,e_rgb,001,2022_Jan_23_1109,contrast,2021.2.3,60.10702657477622,
0.7,9,6,87,7,207.04501990007702,None,207.04501990007702,None,207.04501990007702,None,right,2.145330799976364,207.12791940011084,None,207.04501990007702,None,209.29558040003758,None,e_rgb,001,2022_Jan_23_1109,contrast,2021.2.3,60.10702657477622,
0.5,9,7,88,4,209.5099333000835,None,209.5099333000835,None,209.5099333000835,None,right,0.86355090001598,209.59274430002552,None,209.5099333000835,None,210.47764260007534,None,e_rgb,001,2022_Jan_23_1109,contrast,2021.2.3,60.10702657477622,
0.1,9,8,89,0,210.6914730001008,None,210.6914730001008,None,210.6914730001008,None,left,0.4821505999425426,210.77470790001098,None,210.6914730001008,None,211.27734020003118,None,e_rgb,001,2022_Jan_23_1109,contrast,2021.2.3,60.10702657477622,
0.1,10,0,90,0,211.49134290008806,None,211.49134290008806,None,211.49134290008806,None,left,0.38561600004322827,211.5742840000894,None,211.49134290008806,None,211.99235960002989,None,e_rgb,001,2022_Jan_23_1109,contrast,2021.2.3,60.10702657477622,
0.3,10,1,91,1,212.20717560010962,None,212.20717560010962,None,212.20717560010962,None,left,0.37370849994476885,212.2900061000837,None,212.20717560010962,None,212.6925416000886,None,e_rgb,001,2022_Jan_23_1109,contrast,2021.2.3,60.10702657477622,
0.45,10,2,92,3,212.90645400003996,None,212.90645400003996,None,212.90645400003996,None,left,0.28420750005170703,212.98933280003257,None,212.90645400003996,None,213.29173600010108,None,e_rgb,001,2022_Jan_23_1109,contrast,2021.2.3,60.10702657477622,
0.9,10,3,93,8,213.50668310001493,None,213.50668310001493,None,213.50668310001493,None,right,0.11566540005151182,213.5892011000542,None,213.50668310001493,None,213.72447420004755,None,e_rgb,001,2022_Jan_23_1109,contrast,2021.2.3,60.10702657477622,
0.5,10,4,94,4,213.93882070004474,None,213.93882070004474,None,213.93882070004474,None,right,0.4658426999812946,214.02206020010635,None,213.93882070004474,None,214.5216707000509,None,e_rgb,001,2022_Jan_23_1109,contrast,2021.2.3,60.10702657477622,
0.7,10,5,95,7,214.72257870004978,None,214.72257870004978,None,214.72257870004978,None,right,0.45101859990973026,214.8048668000847,None,214.72257870004978,None,215.2880284000421,None,e_rgb,001,2022_Jan_23_1109,contrast,2021.2.3,60.10702657477622,
0.55,10,6,96,5,215.49054240004625,None,215.49054240004625,None,215.49054240004625,None,right,0.3099266999633983,215.57131700008176,None,215.49054240004625,None,215.90415310009848,None,e_rgb,001,2022_Jan_23_1109,contrast,2021.2.3,60.10702657477622,
0.6,10,7,97,6,216.10371260007378,None,216.10371260007378,None,216.10371260007378,None,right,0.3330683000385761,216.1865872000344,None,216.10371260007378,None,216.55862340005115,None,e_rgb,001,2022_Jan_23_1109,contrast,2021.2.3,60.10702657477622,
0.4,10,8,98,2,216.7755154001061,None,216.7755154001061,None,216.7755154001061,None,right,0.29263430007267743,216.85291790007614,None,216.7755154001061,None,217.17121130006853,None,e_rgb,001,2022_Jan_23_1109,contrast,2021.2.3,60.10702657477622,
0.5,11,0,99,4,217.38644290005323,None,217.38644290005323,None,217.38644290005323,None,right,0.4605564000084996,217.46886210003868,None,217.38644290005323,None,217.95175100001507,None,e_rgb,001,2022_Jan_23_1109,contrast,2021.2.3,60.10702657477622,
0.55,11,1,100,5,218.1525611000834,None,218.1525611000834,None,218.1525611000834,None,right,0.4623158999020234,218.23481560009532,None,218.1525611000834,None,218.7203787000617,None,e_rgb,001,2022_Jan_23_1109,contrast,2021.2.3,60.10702657477622,
0.1,11,2,101,0,218.9343723000493,None,218.9343723000493,None,218.9343723000493,None,left,0.6702465999405831,219.01765120006166,None,218.9343723000493,None,219.72050770011265,None,e_rgb,001,2022_Jan_23_1109,contrast,2021.2.3,60.10702657477622,
0.7,11,3,102,7,219.9367440000642,None,219.9367440000642,None,219.9367440000642,None,right,0.43871629994828254,220.01697690004949,None,219.9367440000642,None,220.48571270005777,None,e_rgb,001,2022_Jan_23_1109,contrast,2021.2.3,60.10702657477622,
0.9,11,4,103,8,220.69940850010607,None,220.69940850010607,None,220.69940850010607,None,right,0.4581740000285208,220.7826329000527,None,220.69940850010607,None,221.27079520002007,None,e_rgb,001,2022_Jan_23_1109,contrast,2021.2.3,60.10702657477622,
0.4,11,5,104,2,221.48552810004912,None,221.48552810004912,None,221.48552810004912,None,left,0.859777000034228,221.56556010001805,None,221.48552810004912,None,222.4502959001111,None,e_rgb,001,2022_Jan_23_1109,contrast,2021.2.3,60.10702657477622,
0.45,11,6,105,3,222.66457630007062,None,222.66457630007062,None,222.66457630007062,None,left,0.34833789989352226,222.7475721000228,None,222.66457630007062,None,223.13053580000997,None,e_rgb,001,2022_Jan_23_1109,contrast,2021.2.3,60.10702657477622,
0.3,11,7,106,1,223.3320706000086,None,223.3320706000086,None,223.3320706000086,None,left,0.2748582001077011,223.4138392000459,None,223.3320706000086,None,223.71913670003414,None,e_rgb,001,2022_Jan_23_1109,contrast,2021.2.3,60.10702657477622,
0.6,11,8,107,6,223.93216810002923,None,223.93216810002923,None,223.93216810002923,None,left,0.5543462000787258,224.0134755000472,None,223.93216810002923,None,224.6015408000676,None,e_rgb,001,2022_Jan_23_1109,contrast,2021.2.3,60.10702657477622,
0.5,12,0,108,4,224.8134268000722,None,224.8134268000722,None,224.8134268000722,None,right,0.3128899000585079,224.89623410010245,None,224.8134268000722,None,225.23303960007615,None,e_rgb,001,2022_Jan_23_1109,contrast,2021.2.3,60.10702657477622,
0.3,12,1,109,1,225.44558320008218,None,225.44558320008218,None,225.44558320008218,None,right,0.3520651999861002,225.5292824000353,None,225.44558320008218,None,225.90180860005785,None,e_rgb,001,2022_Jan_23_1109,contrast,2021.2.3,60.10702657477622,
0.55,12,2,110,5,226.1118363001151,None,226.1118363001151,None,226.1118363001151,None,right,0.2630992999766022,226.19479150010739,None,226.1118363001151,None,226.4830863000825,None,e_rgb,001,2022_Jan_23_1109,contrast,2021.2.3,60.10702657477622,
0.9,12,3,111,8,226.69475410005543,None,226.69475410005543,None,226.69475410005543,None,right,0.31831649993546307,226.77751070004888,None,226.69475410005543,None,227.12972070008982,None,e_rgb,001,2022_Jan_23_1109,contrast,2021.2.3,60.10702657477622,
0.4,12,4,112,2,227.3441195000196,None,227.3441195000196,None,227.3441195000196,None,right,0.35642209998331964,227.42722410010174,None,227.3441195000196,None,227.8145561000565,None,e_rgb,001,2022_Jan_23_1109,contrast,2021.2.3,60.10702657477622,
0.6,12,5,113,6,228.0268587000901,None,228.0268587000901,None,228.0268587000901,None,left,2.442212500027381,228.10982920008246,None,228.0268587000901,None,230.57431020005606,None,e_rgb,001,2022_Jan_23_1109,contrast,2021.2.3,60.10702657477622,
0.1,12,6,114,0,230.77520380006172,None,230.77520380006172,None,230.77520380006172,None,right,1.5502757000504062,230.8574920000974,None,230.77520380006172,None,232.42495350004174,None,e_rgb,001,2022_Jan_23_1109,contrast,2021.2.3,60.10702657477622,
0.45,12,7,115,3,232.63935530011076,None,232.63935530011076,None,232.63935530011076,None,right,0.5509516000747681,232.72215690009762,None,232.63935530011076,None,233.2926122000208,None,e_rgb,001,2022_Jan_23_1109,contrast,2021.2.3,60.10702657477622,
0.7,12,8,116,7,233.5067067000782,None,233.5067067000782,None,233.5067067000782,None,left,0.3874697999563068,233.5882860000711,None,233.5067067000782,None,234.01035020011477,None,e_rgb,001,2022_Jan_23_1109,contrast,2021.2.3,60.10702657477622,
0.9,13,0,117,8,234.22152390005067,None,234.22152390005067,None,234.22152390005067,None,right,0.519480700022541,234.30436750000808,None,234.22152390005067,None,234.85618500004057,None,e_rgb,001,2022_Jan_23_1109,contrast,2021.2.3,60.10702657477622,
0.1,13,1,118,0,235.07169090001844,None,235.07169090001844,None,235.07169090001844,None,right,0.21404180000536144,235.15387340006419,None,235.07169090001844,None,235.4032589000417,None,e_rgb,001,2022_Jan_23_1109,contrast,2021.2.3,60.10702657477622,
0.3,13,2,119,1,235.60431210009847,None,235.60431210009847,None,235.60431210009847,None,left,0.5787577999290079,235.686505000107,None,235.60431210009847,None,236.28833690006286,None,e_rgb,001,2022_Jan_23_1109,contrast,2021.2.3,60.10702657477622,
0.55,13,3,120,5,236.50235920003615,None,236.50235920003615,None,236.50235920003615,None,left,0.4636744000017643,236.58549180009868,None,236.50235920003615,None,237.07089120009914,None,e_rgb,001,2022_Jan_23_1109,contrast,2021.2.3,60.10702657477622,
0.5,13,4,121,4,237.28515610005707,None,237.28515610005707,None,237.28515610005707,None,right,0.06383330002427101,237.36813540000003,None,237.28515610005707,None,237.45693960005883,None,e_rgb,001,2022_Jan_23_1109,contrast,2021.2.3,60.10702657477622,
0.4,13,5,122,2,237.66826780000702,None,237.66826780000702,None,237.66826780000702,None,left,1.3620725000509992,237.75133590004407,None,237.66826780000702,None,239.13734890008345,None,e_rgb,001,2022_Jan_23_1109,contrast,2021.2.3,60.10702657477622,
0.7,13,6,123,7,239.3500347000081,None,239.3500347000081,None,239.3500347000081,None,right,0.6069586999947205,239.41726340004243,None,239.3500347000081,None,240.0529605000047,None,e_rgb,001,2022_Jan_23_1109,contrast,2021.2.3,60.10702657477622,
0.6,13,7,124,6,240.26595650007948,None,240.26595650007948,None,240.26595650007948,None,right,1.4828040999127552,240.34908200008795,None,240.26595650007948,None,241.86652680009138,None,e_rgb,001,2022_Jan_23_1109,contrast,2021.2.3,60.10702657477622,
0.45,13,8,125,3,242.0811604000628,None,242.0811604000628,None,242.0811604000628,None,right,0.5804205000167713,242.16417190001812,None,242.0811604000628,None,242.76595740008634,None,e_rgb,001,2022_Jan_23_1109,contrast,2021.2.3,60.10702657477622,
0.7,14,0,126,7,242.98009970004205,None,242.98009970004205,None,242.98009970004205,None,right,0.6106560999760404,243.0634635000024,None,242.98009970004205,None,243.69862090004608,None,e_rgb,001,2022_Jan_23_1109,contrast,2021.2.3,60.10702657477622,
0.4,14,1,127,2,243.91278690006584,None,243.91278690006584,None,243.91278690006584,None,left,0.5717634999891743,243.99585590010975,None,243.91278690006584,None,244.59789030009415,None,e_rgb,001,2022_Jan_23_1109,contrast,2021.2.3,60.10702657477622,
0.1,14,2,128,0,244.81211290007923,None,244.81211290007923,None,244.81211290007923,None,left,0.5044773999834433,244.8952399000991,None,244.81211290007923,None,245.43026950000785,None,e_rgb,001,2022_Jan_23_1109,contrast,2021.2.3,60.10702657477622,
0.6,14,3,129,6,245.64475290011615,None,245.64475290011615,None,245.64475290011615,None,right,0.761514600017108,245.72778590000235,None,245.64475290011615,None,246.51291700010188,None,e_rgb,001,2022_Jan_23_1109,contrast,2021.2.3,60.10702657477622,
0.3,14,4,130,1,246.7269281001063,None,246.7269281001063,None,246.7269281001063,None,left,1.5019921000348404,246.80994520010427,None,246.7269281001063,None,248.34197330009192,None,e_rgb,001,2022_Jan_23_1109,contrast,2021.2.3,60.10702657477622,
0.9,14,5,131,8,248.54307960008737,None,248.54307960008737,None,248.54307960008737,None,right,0.518727199989371,248.62510930001736,None,248.54307960008737,None,249.1767153000692,None,e_rgb,001,2022_Jan_23_1109,contrast,2021.2.3,60.10702657477622,
0.45,14,6,132,3,249.39139170001727,None,249.39139170001727,None,249.39139170001727,None,left,0.5980756999924779,249.47442690003663,None,249.39139170001727,None,250.09323530003894,None,e_rgb,001,2022_Jan_23_1109,contrast,2021.2.3,60.10702657477622,
0.55,14,7,133,5,250.3074750000378,None,250.3074750000378,None,250.3074750000378,None,right,1.267163599957712,250.39048230007757,None,250.3074750000378,None,251.68138150009327,None,e_rgb,001,2022_Jan_23_1109,contrast,2021.2.3,60.10702657477622,
0.5,14,8,134,4,251.8894398000557,None,251.8894398000557,None,251.8894398000557,None,right,0.5329033000161871,251.972449800116,None,251.8894398000557,None,252.52434560004622,None,e_rgb,001,2022_Jan_23_1109,contrast,2021.2.3,60.10702657477622,
0.9,15,0,135,8,252.73885550000705,None,252.73885550000705,None,252.73885550000705,None,right,0.7702216999605298,252.82146270002704,None,252.73885550000705,None,253.62325060006697,None,e_rgb,001,2022_Jan_23_1109,contrast,2021.2.3,60.10702657477622,
0.3,15,1,136,1,253.83818270009942,None,253.83818270009942,None,253.83818270009942,None,left,0.5194747999776155,253.92033850005828,None,253.83818270009942,None,254.47206130006816,None,e_rgb,001,2022_Jan_23_1109,contrast,2021.2.3,60.10702657477622,
0.55,15,2,137,5,254.6868087000912,None,254.6868087000912,None,254.6868087000912,None,left,0.3434871999779716,254.77005500008818,None,254.6868087000912,None,255.1385187000269,None,e_rgb,001,2022_Jan_23_1109,contrast,2021.2.3,60.10702657477622,
0.6,15,3,138,6,255.35276910010725,None,255.35276910010725,None,255.35276910010725,None,left,0.3490666999714449,255.43595830001868,None,255.35276910010725,None,255.80501180002466,None,e_rgb,001,2022_Jan_23_1109,contrast,2021.2.3,60.10702657477622,
0.45,15,4,139,3,256.01910740009043,None,256.01910740009043,None,256.01910740009043,None,left,0.36958729999605566,256.10225760005414,None,256.01910740009043,None,256.5016339001013,None,e_rgb,001,2022_Jan_23_1109,contrast,2021.2.3,60.10702657477622,
0.1,15,5,140,0,256.70235390006565,None,256.70235390006565,None,256.70235390006565,None,left,0.42269859998486936,256.7849252000451,None,256.70235390006565,None,257.23906740010716,None,e_rgb,001,2022_Jan_23_1109,contrast,2021.2.3,60.10702657477622,
0.4,15,6,141,2,257.45108590007294,None,257.45108590007294,None,257.45108590007294,None,left,0.3631940999766812,257.5344751001103,None,257.45108590007294,None,257.9202675000997,None,e_rgb,001,2022_Jan_23_1109,contrast,2021.2.3,60.10702657477622,
0.5,15,7,142,4,258.13401080004405,None,258.13401080004405,None,258.13401080004405,None,left,1.8385089000221342,258.21709410008043,None,258.13401080004405,None,260.08750270004384,None,e_rgb,001,2022_Jan_23_1109,contrast,2021.2.3,60.10702657477622,
0.7,15,8,143,7,260.2985089001013,None,260.2985089001013,None,260.2985089001013,None,right,0.4900286999763921,260.38170190004166,None,260.2985089001013,None,260.9002082000952,None,e_rgb,001,2022_Jan_23_1109,contrast,2021.2.3,60.10702657477622,
0.4,16,0,144,2,261.11474320001435,None,261.11474320001435,None,261.11474320001435,None,left,0.875957400072366,261.19766470009927,None,261.11474320001435,None,262.1024838000303,None,e_rgb,001,2022_Jan_23_1109,contrast,2021.2.3,60.10702657477622,
0.3,16,1,145,1,262.3134412000654,None,262.3134412000654,None,262.3134412000654,None,right,1.7099529000697657,262.3964212000137,None,262.3134412000654,None,264.1448612000095,None,e_rgb,001,2022_Jan_23_1109,contrast,2021.2.3,60.10702657477622,
0.5,16,2,146,4,264.34583160001785,None,264.34583160001785,None,264.34583160001785,None,right,0.38087619992438704,264.4278922000667,None,264.34583160001785,None,264.83004540007096,None,e_rgb,001,2022_Jan_23_1109,contrast,2021.2.3,60.10702657477622,
0.9,16,3,147,8,265.04499760002363,None,265.04499760002363,None,265.04499760002363,None,left,0.5783925999421626,265.127378800069,None,265.04499760002363,None,265.7292980001075,None,e_rgb,001,2022_Jan_23_1109,contrast,2021.2.3,60.10702657477622,
0.7,16,4,148,7,265.9436067000497,None,265.9436067000497,None,265.9436067000497,None,right,5.117160700028762,266.0267256000079,None,265.9436067000497,None,271.18034380010795,None,e_rgb,001,2022_Jan_23_1109,contrast,2021.2.3,60.10702657477622,
0.1,16,5,149,0,271.3898336000275,None,271.3898336000275,None,271.3898336000275,None,left,0.6949403999606147,271.4733690000139,None,271.3898336000275,None,272.1908938001143,None,e_rgb,001,2022_Jan_23_1109,contrast,2021.2.3,60.10702657477622,
0.6,16,6,150,6,272.4066552000586,None,272.4066552000586,None,272.4066552000586,None,right,1.6177435000427067,272.48756010003854,None,272.4066552000586,None,274.12444570008665,None,e_rgb,001,2022_Jan_23_1109,contrast,2021.2.3,60.10702657477622,
0.45,16,7,151,3,274.3362461000215,None,274.3362461000215,None,274.3362461000215,None,right,1.4292396999662742,274.41932230000384,None,274.3362461000215,None,275.87150860007387,None,e_rgb,001,2022_Jan_23_1109,contrast,2021.2.3,60.10702657477622,
0.55,16,8,152,5,276.0851867001038,None,276.0851867001038,None,276.0851867001038,None,right,0.5613709999015555,276.16783570009284,None,276.0851867001038,None,276.7529368000105,None,e_rgb,001,2022_Jan_23_1109,contrast,2021.2.3,60.10702657477622,
0.3,17,0,153,1,276.96720560011454,None,276.96720560011454,None,276.96720560011454,None,left,1.0376262000063434,277.0502894000383,None,276.96720560011454,None,278.1194570000516,None,e_rgb,001,2022_Jan_23_1109,contrast,2021.2.3,60.10702657477622,
0.1,17,1,154,0,278.33316100004595,None,278.33316100004595,None,278.33316100004595,None,left,0.8553698000032455,278.41633840010036,None,278.33316100004595,None,279.30318160005845,None,e_rgb,001,2022_Jan_23_1109,contrast,2021.2.3,60.10702657477622,
0.4,17,2,155,2,279.51525260007475,None,279.51525260007475,None,279.51525260007475,None,left,0.3792682000203058,279.5981880000327,None,279.51525260007475,None,280.0029338001041,None,e_rgb,001,2022_Jan_23_1109,contrast,2021.2.3,60.10702657477622,
0.6,17,3,156,6,280.21542680007406,None,280.21542680007406,None,280.21542680007406,None,right,0.36538880004081875,280.29849530011415,None,280.21542680007406,None,280.69739150011446,None,e_rgb,001,2022_Jan_23_1109,contrast,2021.2.3,60.10702657477622,
0.5,17,4,157,4,280.898377000005,None,280.898377000005,None,280.898377000005,None,right,0.932696899981238,280.9803382001119,None,280.898377000005,None,281.93228610011283,None,e_rgb,001,2022_Jan_23_1109,contrast,2021.2.3,60.10702657477622,
0.7,17,5,158,7,282.1468184000114,None,282.1468184000114,None,282.1468184000114,None,right,0.7864286000840366,282.229435400106,None,282.1468184000114,None,283.04779110010713,None,e_rgb,001,2022_Jan_23_1109,contrast,2021.2.3,60.10702657477622,
0.45,17,6,159,3,283.2617984000826,None,283.2617984000826,None,283.2617984000826,None,left,1.766700500040315,283.34493230003864,None,283.2617984000826,None,285.12893480004277,None,e_rgb,001,2022_Jan_23_1109,contrast,2021.2.3,60.10702657477622,
0.55,17,7,160,5,285.34366580005735,None,285.34366580005735,None,285.34366580005735,None,right,3.429145900066942,285.42650690011214,None,285.34366580005735,None,288.8921220001066,None,e_rgb,001,2022_Jan_23_1109,contrast,2021.2.3,60.10702657477622,
0.9,17,8,161,8,289.1069898001151,None,289.1069898001151,None,289.1069898001151,None,right,1.217456099926494,289.1903207000578,None,289.1069898001151,None,290.42489060002845,None,e_rgb,001,2022_Jan_23_1109,contrast,2021.2.3,60.10702657477622,
0.9,18,0,162,8,290.6388916000724,None,290.6388916000724,None,290.6388916000724,None,right,0.422219599946402,290.7217399000656,None,290.6388916000724,None,291.1718712000875,None,e_rgb,001,2022_Jan_23_1109,contrast,2021.2.3,60.10702657477622,
0.45,18,1,163,3,291.37353090010583,None,291.37353090010583,None,291.37353090010583,None,right,0.2016550999833271,291.45490750006866,None,291.37353090010583,None,291.6757696000859,None,e_rgb,001,2022_Jan_23_1109,contrast,2021.2.3,60.10702657477622,
0.55,18,2,164,5,291.88815380004235,None,291.88815380004235,None,291.88815380004235,None,left,0.31150299997534603,291.9708010000177,None,291.88815380004235,None,292.30580200010445,None,e_rgb,001,2022_Jan_23_1109,contrast,2021.2.3,60.10702657477622,
0.5,18,3,165,4,292.52004440000746,None,292.52004440000746,None,292.52004440000746,None,left,0.17240100004710257,292.60326070000883,None,292.52004440000746,None,292.8052052001003,None,e_rgb,001,2022_Jan_23_1109,contrast,2021.2.3,60.10702657477622,
0.7,18,4,166,7,293.0202353000641,None,293.0202353000641,None,293.0202353000641,None,left,0.21604870003648102,293.104310200084,None,293.0202353000641,None,293.3390397001058,None,e_rgb,001,2022_Jan_23_1109,contrast,2021.2.3,60.10702657477622,
0.3,18,5,167,1,293.5528120000381,None,293.5528120000381,None,293.5528120000381,None,left,0.2940102000720799,293.63585810002405,None,293.5528120000381,None,293.9545858000638,None,e_rgb,001,2022_Jan_23_1109,contrast,2021.2.3,60.10702657477622,
0.4,18,6,168,2,294.16872560000047,None,294.16872560000047,None,294.16872560000047,None,left,0.39705730008427054,294.25233200006187,None,294.16872560000047,None,294.67314350011293,None,e_rgb,001,2022_Jan_23_1109,contrast,2021.2.3,60.10702657477622,
0.1,18,7,169,0,294.8847796000773,None,294.8847796000773,None,294.8847796000773,None,left,0.38414099998772144,294.96823220001534,None,294.8847796000773,None,295.36999530007597,None,e_rgb,001,2022_Jan_23_1109,contrast,2021.2.3,60.10702657477622,
0.6,18,8,170,6,295.58414110005833,None,295.58414110005833,None,295.58414110005833,None,left,0.310466599999927,295.6673624000978,None,295.58414110005833,None,296.0031986000249,None,e_rgb,001,2022_Jan_23_1109,contrast,2021.2.3,60.10702657477622,
0.4,19,0,171,2,296.20603950007353,None,296.20603950007353,None,296.20603950007353,None,left,0.44438609993085265,296.2834854000248,None,296.20603950007353,None,296.74999990011565,None,e_rgb,001,2022_Jan_23_1109,contrast,2021.2.3,60.10702657477622,
0.7,19,1,172,7,296.9507854001131,None,296.9507854001131,None,296.9507854001131,None,right,0.20670310000423342,297.0330737000331,None,296.9507854001131,None,297.2683256000746,None,e_rgb,001,2022_Jan_23_1109,contrast,2021.2.3,60.10702657477622,
0.6,19,2,173,6,297.4826793000102,None,297.4826793000102,None,297.4826793000102,None,right,0.3796217000344768,297.5656492001144,None,297.4826793000102,None,297.9676782001043,None,e_rgb,001,2022_Jan_23_1109,contrast,2021.2.3,60.10702657477622,
0.55,19,3,174,5,298.1824129000306,None,298.1824129000306,None,298.1824129000306,None,right,0.4001584000652656,298.26520970009733,None,298.1824129000306,None,298.6838776000077,None,e_rgb,001,2022_Jan_23_1109,contrast,2021.2.3,60.10702657477622,
0.5,19,4,175,4,298.90197520004585,None,298.90197520004585,None,298.90197520004585,None,right,0.2762274000560865,298.981257300009,None,298.90197520004585,None,299.285840400029,None,e_rgb,001,2022_Jan_23_1109,contrast,2021.2.3,60.10702657477622,
0.1,19,5,176,0,299.5015304000117,None,299.5015304000117,None,299.5015304000117,None,left,0.4603315000422299,299.58091580006294,None,299.5015304000117,None,300.06388640007935,None,e_rgb,001,2022_Jan_23_1109,contrast,2021.2.3,60.10702657477622,
0.9,19,6,177,8,300.2653086000355,None,300.2653086000355,None,300.2653086000355,None,right,0.36538839992135763,300.3471376000671,None,300.2653086000355,None,300.7348526000278,None,e_rgb,001,2022_Jan_23_1109,contrast,2021.2.3,60.10702657477622,
0.3,19,7,178,1,300.9467449000804,None,300.9467449000804,None,300.9467449000804,None,left,0.484135799924843,301.0296658000443,None,300.9467449000804,None,301.53147780010477,None,e_rgb,001,2022_Jan_23_1109,contrast,2021.2.3,60.10702657477622,
0.45,19,8,179,3,301.7395993000828,None,301.7395993000828,None,301.7395993000828,None,right,0.7711446000030264,301.8124325000681,None,301.7395993000828,None,302.6170982000185,None,e_rgb,001,2022_Jan_23_1109,contrast,2021.2.3,60.10702657477622,
0.9,20,0,180,8,302.82816220005043,None,302.82816220005043,None,302.82816220005043,None,right,0.5206486999522895,302.9110724000493,None,302.82816220005043,None,303.46273370005656,None,e_rgb,001,2022_Jan_23_1109,contrast,2021.2.3,60.10702657477622,
0.4,20,1,181,2,303.6775277000852,None,303.6775277000852,None,303.6775277000852,None,left,1.5120164999971166,303.76056680001784,None,303.6775277000852,None,305.2947871000506,None,e_rgb,001,2022_Jan_23_1109,contrast,2021.2.3,60.10702657477622,
0.5,20,2,182,4,305.5093328000512,None,305.5093328000512,None,305.5093328000512,None,left,0.8640667999861762,305.5919879000867,None,305.5093328000512,None,306.4774939001072,None,e_rgb,001,2022_Jan_23_1109,contrast,2021.2.3,60.10702657477622,
0.45,20,3,183,3,306.69184830004815,None,306.69184830004815,None,306.69184830004815,None,left,0.7691684999736026,306.77456540009007,None,306.69184830004815,None,307.5754855000414,None,e_rgb,001,2022_Jan_23_1109,contrast,2021.2.3,60.10702657477622,
0.1,20,4,184,0,307.79018730006646,None,307.79018730006646,None,307.79018730006646,None,left,0.59996359993238,307.87351530010346,None,307.79018730006646,None,308.49197370000184,None,e_rgb,001,2022_Jan_23_1109,contrast,2021.2.3,60.10702657477622,
0.55,20,5,185,5,308.70612120011356,None,308.70612120011356,None,308.70612120011356,None,right,0.4832730999914929,308.7893882000353,None,308.70612120011356,None,309.2911613000324,None,e_rgb,001,2022_Jan_23_1109,contrast,2021.2.3,60.10702657477622,
0.6,20,6,186,6,309.5058017000556,None,309.5058017000556,None,309.5058017000556,None,right,0.8513303999789059,309.588449300034,None,309.5058017000556,None,310.4572250000201,None,e_rgb,001,2022_Jan_23_1109,contrast,2021.2.3,60.10702657477622,
0.7,20,7,187,7,310.671221400029,None,310.671221400029,None,310.671221400029,None,right,0.5011573999654502,310.75439590006135,None,310.671221400029,None,311.2730670000892,None,e_rgb,001,2022_Jan_23_1109,contrast,2021.2.3,60.10702657477622,
0.3,20,8,188,1,311.4874394000508,None,311.4874394000508,None,311.4874394000508,None,left,0.9174717999994755,311.5704284000676,None,311.4874394000508,None,312.5050462000072,None,e_rgb,001,2022_Jan_23_1109,contrast,2021.2.3,60.10702657477622,
0.55,21,0,189,5,312.7194863000186,None,312.7194863000186,None,312.7194863000186,None,right,0.7592596000758931,312.8023781001102,None,312.7194863000186,None,313.58739710005466,None,e_rgb,001,2022_Jan_23_1109,contrast,2021.2.3,60.10702657477622,
0.7,21,1,190,7,313.80179920000955,None,313.80179920000955,None,313.80179920000955,None,left,0.6989597000647336,313.8849374001147,None,313.80179920000955,None,314.6174072000431,None,e_rgb,001,2022_Jan_23_1109,contrast,2021.2.3,60.10702657477622,
0.9,21,2,191,8,314.8183306000428,None,314.8183306000428,None,314.8183306000428,None,right,0.41938740003388375,314.90043740009423,None,314.8183306000428,None,315.35249820002355,None,e_rgb,001,2022_Jan_23_1109,contrast,2021.2.3,60.10702657477622,
0.5,21,3,192,4,315.56711250008084,None,315.56711250008084,None,315.56711250008084,None,right,0.32759130001068115,315.6501262000529,None,315.56711250008084,None,316.00231320003513,None,e_rgb,001,2022_Jan_23_1109,contrast,2021.2.3,60.10702657477622,
0.4,21,4,193,2,316.2162931000348,None,316.2162931000348,None,316.2162931000348,None,left,0.3651598999276757,316.2994157000212,None,316.2162931000348,None,316.68549710011575,None,e_rgb,001,2022_Jan_23_1109,contrast,2021.2.3,60.10702657477622,
0.6,21,5,194,6,316.899223000044,None,316.899223000044,None,316.899223000044,None,left,0.353231200017035,316.98243260011077,None,316.899223000044,None,317.3824003000045,None,e_rgb,001,2022_Jan_23_1109,contrast,2021.2.3,60.10702657477622,
0.3,21,6,195,1,317.58201800007373,None,317.58201800007373,None,317.58201800007373,None,left,0.4708023000275716,317.6651672000298,None,317.58201800007373,None,318.1696080000838,None,e_rgb,001,2022_Jan_23_1109,contrast,2021.2.3,60.10702657477622,
0.1,21,7,196,0,318.3843546001008,None,318.3843546001008,None,318.3843546001008,None,left,0.5037680000532418,318.4641413000645,None,318.3843546001008,None,318.99944860010874,None,e_rgb,001,2022_Jan_23_1109,contrast,2021.2.3,60.10702657477622,
0.45,21,8,197,3,319.2138091000961,None,319.2138091000961,None,319.2138091000961,None,left,0.5024765999987721,319.2974594000261,None,319.2138091000961,None,319.8295961000258,None,e_rgb,001,2022_Jan_23_1109,contrast,2021.2.3,60.10702657477622,
0.4,22,0,198,2,320.03042410011403,None,320.03042410011403,None,320.03042410011403,None,right,0.16739710001274943,320.11293010006193,None,320.03042410011403,None,320.29832270008046,None,e_rgb,001,2022_Jan_23_1109,contrast,2021.2.3,60.10702657477622,
0.7,22,1,199,7,320.5127152000787,None,320.5127152000787,None,320.5127152000787,None,right,0.48359530000016093,320.5963552000467,None,320.5127152000787,None,321.1059945001034,None,e_rgb,001,2022_Jan_23_1109,contrast,2021.2.3,60.10702657477622,
0.1,22,2,200,0,321.3128368000034,None,321.3128368000034,None,321.3128368000034,None,left,0.7720021000131965,321.39558160002343,None,321.3128368000034,None,322.19913900003303,None,e_rgb,001,2022_Jan_23_1109,contrast,2021.2.3,60.10702657477622,
0.5,22,3,201,4,322.41112660011277,None,322.41112660011277,None,322.41112660011277,None,right,0.7142423000186682,322.49432210007217,None,322.41112660011277,None,323.2292318000691,None,e_rgb,001,2022_Jan_23_1109,contrast,2021.2.3,60.10702657477622,
0.9,22,4,202,8,323.4435725000221,None,323.4435725000221,None,323.4435725000221,None,right,0.6731157000176609,323.5267006000504,None,323.4435725000221,None,324.2287777001038,None,e_rgb,001,2022_Jan_23_1109,contrast,2021.2.3,60.10702657477622,
0.6,22,5,203,6,324.4429302000208,None,324.4429302000208,None,324.4429302000208,None,right,0.9059030000353232,324.52582390001044,None,324.4429302000208,None,325.4605908000376,None,e_rgb,001,2022_Jan_23_1109,contrast,2021.2.3,60.10702657477622,
0.55,22,6,204,5,325.6749453000957,None,325.6749453000957,None,325.6749453000957,None,right,0.7298782001016662,325.7578651000513,None,325.6749453000957,None,326.5096164001152,None,e_rgb,001,2022_Jan_23_1109,contrast,2021.2.3,60.10702657477622,
0.3,22,7,205,1,326.72393220011145,None,326.72393220011145,None,326.72393220011145,None,left,0.6568223999347538,326.80689900007565,None,326.72393220011145,None,327.49554390006233,None,e_rgb,001,2022_Jan_23_1109,contrast,2021.2.3,60.10702657477622,
0.45,22,8,206,3,327.7073686000658,None,327.7073686000658,None,327.7073686000658,None,left,0.9204522999934852,327.791477000108,None,327.7073686000658,None,328.7432754000183,None,e_rgb,001,2022_Jan_23_1109,contrast,2021.2.3,60.10702657477622,
0.9,23,0,207,8,328.9556109000696,None,328.9556109000696,None,328.9556109000696,None,right,0.6830658999970183,329.0383414000971,None,328.9556109000696,None,329.7407138000708,None,e_rgb,001,2022_Jan_23_1109,contrast,2021.2.3,60.10702657477622,
0.45,23,1,208,3,329.9544660000829,None,329.9544660000829,None,329.9544660000829,None,right,0.5308995998930186,330.0373925000895,None,329.9544660000829,None,330.5899243000895,None,e_rgb,001,2022_Jan_23_1109,contrast,2021.2.3,60.10702657477622,
0.7,23,2,209,7,330.8040202000411,None,330.8040202000411,None,330.8040202000411,None,left,0.3368754000402987,330.8869684000965,None,330.8040202000411,None,331.25698530010413,None,e_rgb,001,2022_Jan_23_1109,contrast,2021.2.3,60.10702657477622,
0.6,23,3,210,6,331.46980210009497,None,331.46980210009497,None,331.46980210009497,None,left,0.422380100004375,331.55335880001076,None,331.46980210009497,None,332.0047352000838,None,e_rgb,001,2022_Jan_23_1109,contrast,2021.2.3,60.10702657477622,
0.4,23,4,211,2,332.2200560000492,None,332.2200560000492,None,332.2200560000492,None,left,0.2816896999720484,332.30225300008897,None,332.2200560000492,None,332.61862610001117,None,e_rgb,001,2022_Jan_23_1109,contrast,2021.2.3,60.10702657477622,
0.5,23,5,212,4,332.81860740005504,None,332.81860740005504,None,332.81860740005504,None,left,0.6277947999769822,332.9017089001136,None,332.81860740005504,None,333.55590880010277,None,e_rgb,001,2022_Jan_23_1109,contrast,2021.2.3,60.10702657477622,
0.1,23,6,213,0,333.76834360009525,None,333.76834360009525,None,333.76834360009525,None,right,0.4131963000399992,333.8507069000043,None,333.76834360009525,None,334.28773490001913,None,e_rgb,001,2022_Jan_23_1109,contrast,2021.2.3,60.10702657477622,
0.55,23,7,214,5,334.50009950005915,None,334.50009950005915,None,334.50009950005915,None,left,0.3042187999235466,334.58344250009395,None,334.50009950005915,None,334.91864780010656,None,e_rgb,001,2022_Jan_23_1109,contrast,2021.2.3,60.10702657477622,
0.3,23,8,215,1,335.1331613000948,None,335.1331613000948,None,335.1331613000948,None,right,0.3932257000124082,335.21609670005273,None,335.1331613000948,None,335.6346360000316,None,e_rgb,001,2022_Jan_23_1109,contrast,2021.2.3,60.10702657477622,
0.9,24,0,216,8,335.8491823000368,None,335.8491823000368,None,335.8491823000368,None,right,0.38022329995874316,335.932291300036,None,335.8491823000368,None,336.3423425001092,None,e_rgb,001,2022_Jan_23_1109,contrast,2021.2.3,60.10702657477622,
0.1,24,1,217,0,336.55196280009113,None,336.55196280009113,None,336.55196280009113,None,left,0.6089046000270173,336.6321473000571,None,336.55196280009113,None,337.2661697000731,None,e_rgb,001,2022_Jan_23_1109,contrast,2021.2.3,60.10702657477622,
0.4,24,2,218,2,337.48214720003307,None,337.48214720003307,None,337.48214720003307,None,left,0.44443409994710237,337.5651025000261,None,337.48214720003307,None,338.03444540000055,None,e_rgb,001,2022_Jan_23_1109,contrast,2021.2.3,60.10702657477622,
0.3,24,3,219,1,338.2471996000968,None,338.2471996000968,None,338.2471996000968,None,left,0.46186979999765754,338.3312680000672,None,338.2471996000968,None,338.8158081000438,None,e_rgb,001,2022_Jan_23_1109,contrast,2021.2.3,60.10702657477622,
0.5,24,4,220,4,339.02959400007967,None,339.02959400007967,None,339.02959400007967,None,left,1.3930580000160262,339.11296400008723,None,339.02959400007967,None,340.5311404000968,None,e_rgb,001,2022_Jan_23_1109,contrast,2021.2.3,60.10702657477622,
0.45,24,5,221,3,340.7452257000841,None,340.7452257000841,None,340.7452257000841,None,right,1.403598599950783,340.82822580006905,None,340.7452257000841,None,342.26469730003737,None,e_rgb,001,2022_Jan_23_1109,contrast,2021.2.3,60.10702657477622,
0.6,24,6,222,6,342.47667650005314,None,342.47667650005314,None,342.47667650005314,None,right,0.409615800017491,342.55977190006524,None,342.47667650005314,None,342.99837670009583,None,e_rgb,001,2022_Jan_23_1109,contrast,2021.2.3,60.10702657477622,
0.55,24,7,223,5,343.2120829001069,None,343.2120829001069,None,343.2120829001069,None,right,0.44497760001104325,343.29287970007863,None,343.2120829001069,None,343.7620712000644,None,e_rgb,001,2022_Jan_23_1109,contrast,2021.2.3,60.10702657477622,
0.7,24,8,224,7,343.9759115000488,None,343.9759115000488,None,343.9759115000488,None,right,0.2686830998864025,344.05914780008607,None,343.9759115000488,None,344.34429740009364,None,e_rgb,001,2022_Jan_23_1109,contrast,2021.2.3,60.10702657477622,
0.4,25,0,225,2,344.55840790004004,None,344.55840790004004,None,344.55840790004004,None,right,0.2797973999986425,344.64130510005634,None,344.55840790004004,None,344.945463100099,None,e_rgb,001,2022_Jan_23_1109,contrast,2021.2.3,60.10702657477622,
0.5,25,1,226,4,345.1606279000407,None,345.1606279000407,None,345.1606279000407,None,left,0.38278230000287294,345.2410646000644,None,345.1606279000407,None,345.6480924000498,None,e_rgb,001,2022_Jan_23_1109,contrast,2021.2.3,60.10702657477622,
0.9,25,2,227,8,345.8576141000958,None,345.8576141000958,None,345.8576141000958,None,right,0.6604731000261381,345.94069620000664,None,345.8576141000958,None,346.62590900005307,None,e_rgb,001,2022_Jan_23_1109,contrast,2021.2.3,60.10702657477622,
0.1,25,3,228,0,346.8397638000315,None,346.8397638000315,None,346.8397638000315,None,left,0.5414896999718621,346.92263840010855,None,346.8397638000315,None,347.4993509000633,None,e_rgb,001,2022_Jan_23_1109,contrast,2021.2.3,60.10702657477622,
0.7,25,4,229,7,347.7092529000947,None,347.7092529000947,None,347.7092529000947,None,right,0.6995821000309661,347.789114800049,None,347.7092529000947,None,348.50703850004356,None,e_rgb,001,2022_Jan_23_1109,contrast,2021.2.3,60.10702657477622,
0.3,25,5,230,1,348.72139870002866,None,348.72139870002866,None,348.72139870002866,None,left,1.011464000097476,348.8043312000809,None,348.72139870002866,None,349.8368007000536,None,e_rgb,001,2022_Jan_23_1109,contrast,2021.2.3,60.10702657477622,
0.55,25,6,231,5,350.03773430001456,None,350.03773430001456,None,350.03773430001456,None,right,0.5777291000122204,350.120101800072,None,350.03773430001456,None,350.72170890006237,None,e_rgb,001,2022_Jan_23_1109,contrast,2021.2.3,60.10702657477622,
0.6,25,7,232,6,350.9360845000483,None,350.9360845000483,None,350.9360845000483,None,right,0.700485699926503,351.0190930000972,None,350.9360845000483,None,351.7375010000542,None,e_rgb,001,2022_Jan_23_1109,contrast,2021.2.3,60.10702657477622,
0.45,25,8,233,3,351.95227730006445,None,351.95227730006445,None,351.95227730006445,None,right,0.8045263000531122,352.03531040006783,None,351.95227730006445,None,352.87248580006417,None,e_rgb,001,2022_Jan_23_1109,contrast,2021.2.3,60.10702657477622,
0.5,26,0,234,4,353.1020585000515,None,353.1020585000515,None,353.1020585000515,None,right,0.6275240000104532,353.17295400006697,None,353.1020585000515,None,353.82212270004675,None,e_rgb,001,2022_Jan_23_1109,contrast,2021.2.3,60.10702657477622,
0.4,26,1,235,2,354.03337580000516,None,354.03337580000516,None,354.03337580000516,None,right,0.8671575000043958,354.11645860003773,None,354.03337580000516,None,355.0014564000303,None,e_rgb,001,2022_Jan_23_1109,contrast,2021.2.3,60.10702657477622,
0.1,26,2,236,0,355.2158204000443,None,355.2158204000443,None,355.2158204000443,None,left,0.8370509999804199,355.29866890003905,None,355.2158204000443,None,356.1667802000884,None,e_rgb,001,2022_Jan_23_1109,contrast,2021.2.3,60.10702657477622,
0.9,26,3,237,8,356.381628000061,None,356.381628000061,None,356.381628000061,None,right,0.8392375999828801,356.4643522000406,None,356.381628000061,None,357.33275450009387,None,e_rgb,001,2022_Jan_23_1109,contrast,2021.2.3,60.10702657477622,
0.7,26,4,238,7,357.54697760008276,None,357.54697760008276,None,357.54697760008276,None,left,0.6344053999055177,357.63015580002684,None,357.54697760008276,None,358.2851061000256,None,e_rgb,001,2022_Jan_23_1109,contrast,2021.2.3,60.10702657477622,
0.45,26,5,239,3,358.4965509000467,None,358.4965509000467,None,358.4965509000467,None,left,2.694409399991855,358.5793173001148,None,358.4965509000467,None,361.31030740006827,None,e_rgb,001,2022_Jan_23_1109,contrast,2021.2.3,60.10702657477622,
0.3,26,6,240,1,361.51276670000516,None,361.51276670000516,None,361.51276670000516,None,left,0.7501032999716699,361.59391730010975,None,361.51276670000516,None,362.36258260009345,None,e_rgb,001,2022_Jan_23_1109,contrast,2021.2.3,60.10702657477622,
0.55,26,7,241,5,362.5765789001016,None,362.5765789001016,None,362.5765789001016,None,right,0.6618637000210583,362.65943350002635,None,362.5765789001016,None,363.3447125001112,None,e_rgb,001,2022_Jan_23_1109,contrast,2021.2.3,60.10702657477622,
0.6,26,8,242,6,363.5586879000766,None,363.5586879000766,None,363.5586879000766,None,right,0.43033660005312413,363.6415032000514,None,363.5586879000766,None,364.1078816000372,None,e_rgb,001,2022_Jan_23_1109,contrast,2021.2.3,60.10702657477622,
0.5,27,0,243,4,364.30851650005206,None,364.30851650005206,None,364.30851650005206,None,right,0.40689690003637224,364.3849253000226,None,364.30851650005206,None,364.8097047000192,None,e_rgb,001,2022_Jan_23_1109,contrast,2021.2.3,60.10702657477622,
0.9,27,1,244,8,365.02377500000875,None,365.02377500000875,None,365.02377500000875,None,right,0.4530028000008315,365.10684320004657,None,365.02377500000875,None,365.5921156000113,None,e_rgb,001,2022_Jan_23_1109,contrast,2021.2.3,60.10702657477622,
0.55,27,2,245,5,365.8077757001156,None,365.8077757001156,None,365.8077757001156,None,right,0.5339169000508264,365.88967490009964,None,365.8077757001156,None,366.44151660008356,None,e_rgb,001,2022_Jan_23_1109,contrast,2021.2.3,60.10702657477622,
0.4,27,3,246,2,366.65578260004986,None,366.65578260004986,None,366.65578260004986,None,left,1.0295302999438718,366.7387131000869,None,366.65578260004986,None,367.79375000006985,None,e_rgb,001,2022_Jan_23_1109,contrast,2021.2.3,60.10702657477622,
0.7,27,4,247,7,368.00533220008947,None,368.00533220008947,None,368.00533220008947,None,left,0.4796615999657661,368.08824810001533,None,368.00533220008947,None,368.6044106000336,None,e_rgb,001,2022_Jan_23_1109,contrast,2021.2.3,60.10702657477622,
0.6,27,5,248,6,368.8051811000332,None,368.8051811000332,None,368.8051811000332,None,right,0.09709779999684542,368.88708790007513,None,368.8051811000332,None,369.0087962000398,None,e_rgb,001,2022_Jan_23_1109,contrast,2021.2.3,60.10702657477622,
0.1,27,6,249,0,369.2201318000443,None,369.2201318000443,None,369.2201318000443,None,left,0.7365985000506043,369.3032806001138,None,369.2201318000443,None,370.0731419000076,None,e_rgb,001,2022_Jan_23_1109,contrast,2021.2.3,60.10702657477622,
0.45,27,7,250,3,370.2883384000743,None,370.2883384000743,None,370.2883384000743,None,left,1.158972500008531,370.3707011000952,None,370.2883384000743,None,371.55392750003375,None,e_rgb,001,2022_Jan_23_1109,contrast,2021.2.3,60.10702657477622,
0.3,27,8,251,1,371.76802070008125,None,371.76802070008125,None,371.76802070008125,None,left,0.972510899999179,371.85114900011104,None,371.76802070008125,None,372.8681714000413,None,e_rgb,001,2022_Jan_23_1109,contrast,2021.2.3,60.10702657477622,
0.55,28,0,252,5,373.06773050001357,None,373.06773050001357,None,373.06773050001357,None,right,0.32852249999996275,373.15165020001587,None,373.06773050001357,None,373.50238150008954,None,e_rgb,001,2022_Jan_23_1109,contrast,2021.2.3,60.10702657477622,
0.7,28,1,253,7,373.7165325001115,None,373.7165325001115,None,373.7165325001115,None,right,0.594391499995254,373.7995504999999,None,373.7165325001115,None,374.4177530000452,None,e_rgb,001,2022_Jan_23_1109,contrast,2021.2.3,60.10702657477622,
0.6,28,2,254,6,374.6325711000245,None,374.6325711000245,None,374.6325711000245,None,right,0.9262242000550032,374.7151258001104,None,374.6325711000245,None,375.6667036000872,None,e_rgb,001,2022_Jan_23_1109,contrast,2021.2.3,60.10702657477622,
0.45,28,3,255,3,375.88099310011603,None,375.88099310011603,None,375.88099310011603,None,right,0.4130778999533504,375.9641380000394,None,375.88099310011603,None,376.39968830009457,None,e_rgb,001,2022_Jan_23_1109,contrast,2021.2.3,60.10702657477622,
0.9,28,4,256,8,376.6137516000308,None,376.6137516000308,None,376.6137516000308,None,right,0.6871970999054611,376.6966923000291,None,376.6137516000308,None,377.41494570008945,None,e_rgb,001,2022_Jan_23_1109,contrast,2021.2.3,60.10702657477622,
0.5,28,5,257,4,377.62991880008485,None,377.62991880008485,None,377.62991880008485,None,right,0.3291718000546098,377.7124836000148,None,377.62991880008485,None,378.067645000061,None,e_rgb,001,2022_Jan_23_1109,contrast,2021.2.3,60.10702657477622,
0.3,28,6,258,1,378.2792601000983,None,378.2792601000983,None,378.2792601000983,None,left,0.14330759993754327,378.3620096000377,None,378.2792601000983,None,378.53449540003203,None,e_rgb,001,2022_Jan_23_1109,contrast,2021.2.3,60.10702657477622,
0.4,28,7,259,2,378.74594440008514,None,378.74594440008514,None,378.74594440008514,None,right,0.36392419994808733,378.82869000011124,None,378.74594440008514,None,379.21386230003554,None,e_rgb,001,2022_Jan_23_1109,contrast,2021.2.3,60.10702657477622,
0.1,28,8,260,0,379.42796110000927,None,379.42796110000927,None,379.42796110000927,None,left,0.43422819999977946,379.5111739001004,None,379.42796110000927,None,379.9634050000459,None,e_rgb,001,2022_Jan_23_1109,contrast,2021.2.3,60.10702657477622,
0.55,29,0,261,5,380.17762300011236,None,380.17762300011236,None,380.17762300011236,None,right,0.6447648999746889,380.2605421000626,None,380.17762300011236,None,380.92907270009164,None,e_rgb,001,2022_Jan_23_1109,contrast,2021.2.3,60.10702657477622,
0.6,29,1,262,6,381.1437023000326,None,381.1437023000326,None,381.1437023000326,None,right,0.6695413000416011,381.2262839000905,None,381.1437023000326,None,381.9275228000479,None,e_rgb,001,2022_Jan_23_1109,contrast,2021.2.3,60.10702657477622,
0.1,29,2,263,0,382.1422164000105,None,382.1422164000105,None,382.1422164000105,None,left,1.0794269000180066,382.225298400037,None,382.1422164000105,None,383.3272749000462,None,e_rgb,001,2022_Jan_23_1109,contrast,2021.2.3,60.10702657477622,
0.3,29,3,264,1,383.5413302000379,None,383.5413302000379,None,383.5413302000379,None,left,0.4635349999880418,383.62423430010676,None,383.5413302000379,None,384.1103114000289,None,e_rgb,001,2022_Jan_23_1109,contrast,2021.2.3,60.10702657477622,
0.9,29,4,265,8,384.3236278000986,None,384.3236278000986,None,384.3236278000986,None,right,0.46613149996846914,384.4069843000034,None,384.3236278000986,None,384.89226750005037,None,e_rgb,001,2022_Jan_23_1109,contrast,2021.2.3,60.10702657477622,
0.7,29,5,266,7,385.10642570001073,None,385.10642570001073,None,385.10642570001073,None,right,0.40233279997482896,385.1894074000884,None,385.10642570001073,None,385.6082488000393,None,e_rgb,001,2022_Jan_23_1109,contrast,2021.2.3,60.10702657477622,
0.4,29,6,267,2,385.8223449001089,None,385.8223449001089,None,385.8223449001089,None,left,0.6961057999869809,385.9052316000452,None,385.8223449001089,None,386.62852630007546,None,e_rgb,001,2022_Jan_23_1109,contrast,2021.2.3,60.10702657477622,
0.5,29,7,268,4,386.8383217001101,None,386.8383217001101,None,386.8383217001101,None,right,1.407209699973464,386.921360700042,None,386.8383217001101,None,388.35359160008375,None,e_rgb,001,2022_Jan_23_1109,contrast,2021.2.3,60.10702657477622,
0.45,29,8,269,3,388.5547147000907,None,388.5547147000907,None,388.5547147000907,None,right,0.3799934000708163,388.6365438000066,None,388.5547147000907,None,389.0391388001153,None,e_rgb,001,2022_Jan_23_1109,contrast,2021.2.3,60.10702657477622,
