rgb_luminance,trials.thisRepN,trials.thisTrialN,trials.thisN,trials.thisIndex,patch_background.started,patch_background.stopped,patch_foreground.started,patch_foreground.stopped,patch_test.started,patch_test.stopped,key_response.keys,key_response.rt,key_response.started,key_response.stopped,text_task.started,text_task.stopped,text.started,text.stopped,participant,session,date,expName,psychopyVersion,frameRate,
0.3,0,0,0,1,70.51396550005302,None,70.51396550005302,None,70.51396550005302,None,left,3.6804988000076264,70.60381020000204,None,70.51396550005302,None,74.3028226000024,None,M,001,2022_Jan_22_1757,contrast,2021.2.3,60.03031529546424,
0.45,0,1,1,3,74.51724549999926,None,74.51724549999926,None,74.51724549999926,None,right,3.6834391999873333,74.60048010002356,None,74.51724549999926,None,78.31477750005433,None,M,001,2022_Jan_22_1757,contrast,2021.2.3,60.03031529546424,
0.5,0,2,2,4,78.51550590002444,None,78.51550590002444,None,78.51550590002444,None,right,0.9816503000329249,78.59851590002654,None,78.51550590002444,None,79.59931489999872,None,M,001,2022_Jan_22_1757,contrast,2021.2.3,60.03031529546424,
0.9,0,3,3,8,79.81262780004181,None,79.81262780004181,None,79.81262780004181,None,right,0.8041549999616109,79.89572810003301,None,79.81262780004181,None,80.72981180000352,None,M,001,2022_Jan_22_1757,contrast,2021.2.3,60.03031529546424,
0.4,0,4,4,2,80.94483240001136,None,80.94483240001136,None,80.94483240001136,None,left,1.2400911999866366,81.02810910000699,None,80.94483240001136,None,82.29490770003758,None,M,001,2022_Jan_22_1757,contrast,2021.2.3,60.03031529546424,
0.1,0,5,5,0,82.50985160004348,None,82.50985160004348,None,82.50985160004348,None,left,1.0997574999928474,82.59311990003334,None,82.50985160004348,None,83.70996240002569,None,M,001,2022_Jan_22_1757,contrast,2021.2.3,60.03031529546424,
0.7,0,6,6,7,83.92567200004123,None,83.92567200004123,None,83.92567200004123,None,right,0.9796104999841191,84.00901450001402,None,83.92567200004123,None,85.00928920001024,None,M,001,2022_Jan_22_1757,contrast,2021.2.3,60.03031529546424,
0.55,0,7,7,5,85.22454610001296,None,85.22454610001296,None,85.22454610001296,None,right,2.528617200034205,85.30800499999896,None,85.22454610001296,None,87.85667980002472,None,M,001,2022_Jan_22_1757,contrast,2021.2.3,60.03031529546424,
0.6,0,8,8,6,88.07207610004116,None,88.07207610004116,None,88.07207610004116,None,right,0.7528073999565095,88.15516590001062,None,88.07207610004116,None,88.93887830001768,None,M,001,2022_Jan_22_1757,contrast,2021.2.3,60.03031529546424,
0.4,1,0,9,2,89.15432310005417,None,89.15432310005417,None,89.15432310005417,None,left,1.2221469999640249,89.23792949999915,None,89.15432310005417,None,90.48862720001489,None,M,001,2022_Jan_22_1757,contrast,2021.2.3,60.03031529546424,
0.6,1,1,10,6,90.7030184000032,None,90.7030184000032,None,90.7030184000032,None,right,2.3789932999643497,90.78618530003587,None,90.7030184000032,None,93.18607710005017,None,M,001,2022_Jan_22_1757,contrast,2021.2.3,60.03031529546424,
0.7,1,2,11,7,93.40053620003164,None,93.40053620003164,None,93.40053620003164,None,right,0.7523305999930017,93.48387970001204,None,93.40053620003164,None,94.26744090003194,None,M,001,2022_Jan_22_1757,contrast,2021.2.3,60.03031529546424,
0.5,1,3,12,4,94.48305880004773,None,94.48305880004773,None,94.48305880004773,None,right,4.807115799980238,94.56648030003998,None,94.48305880004773,None,99.39691380003933,None,M,001,2022_Jan_22_1757,contrast,2021.2.3,60.03031529546424,
0.3,1,4,13,1,99.61263480002526,None,99.61263480002526,None,99.61263480002526,None,left,1.3567418999737129,99.69515140005387,None,99.61263480002526,None,101.07818830001634,None,M,001,2022_Jan_22_1757,contrast,2021.2.3,60.03031529546424,
0.9,1,5,14,8,101.29349310003454,None,101.29349310003454,None,101.29349310003454,None,right,0.6033357999986038,101.3767526000156,None,101.29349310003454,None,102.01097190001747,None,M,001,2022_Jan_22_1757,contrast,2021.2.3,60.03031529546424,
0.1,1,6,15,0,102.22611899999902,None,102.22611899999902,None,102.22611899999902,None,left,1.334612000035122,102.30934490001528,None,102.22611899999902,None,103.66037480003433,None,M,001,2022_Jan_22_1757,contrast,2021.2.3,60.03031529546424,
0.45,1,7,16,3,103.87489650002681,None,103.87489650002681,None,103.87489650002681,None,right,1.589955999981612,103.9580579000176,None,103.87489650002681,None,105.57498620002298,None,M,001,2022_Jan_22_1757,contrast,2021.2.3,60.03031529546424,
0.55,1,8,17,5,105.78980010002851,None,105.78980010002851,None,105.78980010002851,None,right,1.2293423000373878,105.87317330000224,None,105.78980010002851,None,107.12351730000228,None,M,001,2022_Jan_22_1757,contrast,2021.2.3,60.03031529546424,
0.5,2,0,18,4,107.33838080003625,None,107.33838080003625,None,107.33838080003625,None,left,1.5183741000364535,107.42162850004388,None,107.33838080003625,None,108.97143410000717,None,M,001,2022_Jan_22_1757,contrast,2021.2.3,60.03031529546424,
0.9,2,1,19,8,109.18683650001185,None,109.18683650001185,None,109.18683650001185,None,right,0.5338547000428662,109.27008000004571,None,109.18683650001185,None,109.82132950000232,None,M,001,2022_Jan_22_1757,contrast,2021.2.3,60.03031529546424,
0.4,2,2,20,2,110.03603620000649,None,110.03603620000649,None,110.03603620000649,None,left,2.4363797000260092,110.11950270005036,None,110.03603620000649,None,112.58480800001416,None,M,001,2022_Jan_22_1757,contrast,2021.2.3,60.03031529546424,
0.1,2,3,21,0,112.80151580000529,None,112.80151580000529,None,112.80151580000529,None,left,1.0658433999633417,112.88361180003267,None,112.80151580000529,None,113.96674480004003,None,M,001,2022_Jan_22_1757,contrast,2021.2.3,60.03031529546424,
0.3,2,4,22,1,114.18252900004154,None,114.18252900004154,None,114.18252900004154,None,left,1.938207000028342,114.2657624000567,None,114.18252900004154,None,116.24353040003916,None,M,001,2022_Jan_22_1757,contrast,2021.2.3,60.03031529546424,
0.45,2,5,23,3,116.44716720003635,None,116.44716720003635,None,116.44716720003635,None,left,2.6980085000395775,116.53035410004668,None,116.44716720003635,None,119.24549500003923,None,M,001,2022_Jan_22_1757,contrast,2021.2.3,60.03031529546424,
0.7,2,6,24,7,119.46126010001171,None,119.46126010001171,None,119.46126010001171,None,right,0.4834635999868624,119.5443920000107,None,119.46126010001171,None,120.04489430005196,None,M,001,2022_Jan_22_1757,contrast,2021.2.3,60.03031529546424,
0.55,2,7,25,5,120.24425300001167,None,120.24425300001167,None,120.24425300001167,None,right,1.013468399993144,120.32705890003126,None,120.24425300001167,None,121.36135190003552,None,M,001,2022_Jan_22_1757,contrast,2021.2.3,60.03031529546424,
0.6,2,8,26,6,121.57612800004426,None,121.57612800004426,None,121.57612800004426,None,right,1.2166752999764867,121.65920150000602,None,121.57612800004426,None,122.89214640000137,None,M,001,2022_Jan_22_1757,contrast,2021.2.3,60.03031529546424,
0.55,3,0,27,5,123.10796440002741,None,123.10796440002741,None,123.10796440002741,None,right,4.820619100006297,123.19151300005615,None,123.10796440002741,None,128.03750820003916,None,M,001,2022_Jan_22_1757,contrast,2021.2.3,60.03031529546424,
0.3,3,1,28,1,128.25355510000372,None,128.25355510000372,None,128.25355510000372,None,left,3.4990356999915093,128.33681920001982,None,128.25355510000372,None,131.86745640001027,None,M,001,2022_Jan_22_1757,contrast,2021.2.3,60.03031529546424,
0.4,3,2,29,2,132.0669170000474,None,132.0669170000474,None,132.0669170000474,None,left,2.0697639999561943,132.15007720002905,None,132.0669170000474,None,134.24913010001183,None,M,001,2022_Jan_22_1757,contrast,2021.2.3,60.03031529546424,
0.1,3,3,30,0,134.46490450005513,None,134.46490450005513,None,134.46490450005513,None,left,0.951771899999585,134.54811580001842,None,134.46490450005513,None,135.53123300004518,None,M,001,2022_Jan_22_1757,contrast,2021.2.3,60.03031529546424,
0.5,3,4,31,4,135.73047280003084,None,135.73047280003084,None,135.73047280003084,None,right,1.399134800012689,135.81381479999982,None,135.73047280003084,None,137.2297570000519,None,M,001,2022_Jan_22_1757,contrast,2021.2.3,60.03031529546424,
0.6,3,5,32,6,137.42896430002293,None,137.42896430002293,None,137.42896430002293,None,right,0.7876900999690406,137.5121495000203,None,137.42896430002293,None,138.32846000004793,None,M,001,2022_Jan_22_1757,contrast,2021.2.3,60.03031529546424,
0.9,3,6,33,8,138.52793370001018,None,138.52793370001018,None,138.52793370001018,None,right,1.1942322999821045,138.6111801000079,None,138.52793370001018,None,139.82760440005222,None,M,001,2022_Jan_22_1757,contrast,2021.2.3,60.03031529546424,
0.45,3,7,34,3,140.0431310000131,None,140.0431310000131,None,140.0431310000131,None,right,9.933483399974648,140.1265190000413,None,140.0431310000131,None,150.08529650000855,None,M,001,2022_Jan_22_1757,contrast,2021.2.3,60.03031529546424,
0.7,3,8,35,7,150.28463060001377,None,150.28463060001377,None,150.28463060001377,None,right,1.4833834000164643,150.36848250002367,None,150.28463060001377,None,151.883752200054,None,M,001,2022_Jan_22_1757,contrast,2021.2.3,60.03031529546424,
0.3,4,0,36,1,152.0831808000221,None,152.0831808000221,None,152.0831808000221,None,left,1.0955334000173025,152.16632450005272,None,152.0831808000221,None,153.2828132000286,None,M,001,2022_Jan_22_1757,contrast,2021.2.3,60.03031529546424,
0.4,4,1,37,2,153.49817400000757,None,153.49817400000757,None,153.49817400000757,None,right,8.975657199975103,153.58157470001606,None,153.49817400000757,None,162.57480210001813,None,M,001,2022_Jan_22_1757,contrast,2021.2.3,60.03031529546424,
0.5,4,2,38,4,162.79015110002365,None,162.79015110002365,None,162.79015110002365,None,right,0.7546580000198446,162.87318770005368,None,162.79015110002365,None,163.65649120003218,None,M,001,2022_Jan_22_1757,contrast,2021.2.3,60.03031529546424,
0.9,4,3,39,8,163.85591110005043,None,163.85591110005043,None,163.85591110005043,None,right,0.5847289999946952,163.93913170002634,None,163.85591110005043,None,164.55557300004875,None,M,001,2022_Jan_22_1757,contrast,2021.2.3,60.03031529546424,
0.1,4,4,40,0,164.7554682000191,None,164.7554682000191,None,164.7554682000191,None,left,0.9335366999730468,164.8383341000299,None,164.7554682000191,None,165.78833040001336,None,M,001,2022_Jan_22_1757,contrast,2021.2.3,60.03031529546424,
0.55,4,5,41,5,166.00420800002757,None,166.00420800002757,None,166.00420800002757,None,right,2.35668780002743,166.087260100001,None,166.00420800002757,None,168.46897620003438,None,M,001,2022_Jan_22_1757,contrast,2021.2.3,60.03031529546424,
0.45,4,6,42,3,168.6683447000105,None,168.6683447000105,None,168.6683447000105,None,right,1.7105288000311702,168.75137430004543,None,168.6683447000105,None,170.48420870001428,None,M,001,2022_Jan_22_1757,contrast,2021.2.3,60.03031529546424,
0.6,4,7,43,6,170.69988980004564,None,170.69988980004564,None,170.69988980004564,None,right,0.4945363999577239,170.7832130000461,None,170.69988980004564,None,171.30050100001972,None,M,001,2022_Jan_22_1757,contrast,2021.2.3,60.03031529546424,
0.7,4,8,44,7,171.5158405000111,None,171.5158405000111,None,171.5158405000111,None,right,0.5250180000439286,171.59902100003092,None,171.5158405000111,None,172.14978710003197,None,M,001,2022_Jan_22_1757,contrast,2021.2.3,60.03031529546424,
0.5,5,0,45,4,172.36515820003115,None,172.36515820003115,None,172.36515820003115,None,right,0.8610612000338733,172.44842310005333,None,172.36515820003115,None,173.3317935000523,None,M,001,2022_Jan_22_1757,contrast,2021.2.3,60.03031529546424,
0.55,5,1,46,5,173.54732140002307,None,173.54732140002307,None,173.54732140002307,None,right,1.182628599985037,173.63054340000963,None,173.54732140002307,None,174.8305560000008,None,M,001,2022_Jan_22_1757,contrast,2021.2.3,60.03031529546424,
0.4,5,2,47,2,175.04600880004,None,175.04600880004,None,175.04600880004,None,left,1.3477788000018336,175.1293277000077,None,175.04600880004,None,176.49587250000332,None,M,001,2022_Jan_22_1757,contrast,2021.2.3,60.03031529546424,
0.6,5,3,48,6,176.71135290001985,None,176.71135290001985,None,176.71135290001985,None,right,0.4499859000206925,176.7946686000214,None,176.71135290001985,None,177.26189590001013,None,M,001,2022_Jan_22_1757,contrast,2021.2.3,60.03031529546424,
0.3,5,4,49,1,177.47766430000775,None,177.47766430000775,None,177.47766430000775,None,left,1.299094200017862,177.56077890004963,None,177.47766430000775,None,178.87696620001225,None,M,001,2022_Jan_22_1757,contrast,2021.2.3,60.03031529546424,
0.45,5,5,50,3,179.09257370000705,None,179.09257370000705,None,179.09257370000705,None,left,2.148343399981968,179.17602200002875,None,179.09257370000705,None,181.3411643000436,None,M,001,2022_Jan_22_1757,contrast,2021.2.3,60.03031529546424,
0.1,5,6,51,0,181.54060950002167,None,181.54060950002167,None,181.54060950002167,None,left,0.7401679000467993,181.62386640004115,None,181.54060950002167,None,182.39057890005643,None,M,001,2022_Jan_22_1757,contrast,2021.2.3,60.03031529546424,
0.9,5,7,52,8,182.58993520005606,None,182.58993520005606,None,182.58993520005606,None,right,0.49118469998938963,182.67291180003667,None,182.58993520005606,None,183.18941480002832,None,M,001,2022_Jan_22_1757,contrast,2021.2.3,60.03031529546424,
0.7,5,8,53,7,183.38878450001357,None,183.38878450001357,None,183.38878450001357,None,right,0.5719673999701627,183.4718731000321,None,183.38878450001357,None,184.07205880002584,None,M,001,2022_Jan_22_1757,contrast,2021.2.3,60.03031529546424,
0.9,6,0,54,8,184.27159290004056,None,184.27159290004056,None,184.27159290004056,None,right,0.4252880000276491,184.35469590005232,None,184.27159290004056,None,184.80501460004598,None,M,001,2022_Jan_22_1757,contrast,2021.2.3,60.03031529546424,
0.55,6,1,55,5,185.00460320001002,None,185.00460320001002,None,185.00460320001002,None,left,2.188412999967113,185.0876658000052,None,185.00460320001002,None,187.30318940000143,None,M,001,2022_Jan_22_1757,contrast,2021.2.3,60.03031529546424,
0.6,6,2,56,6,187.51917030004552,None,187.51917030004552,None,187.51917030004552,None,right,0.4581684999866411,187.60193140001502,None,187.51917030004552,None,188.0859921000083,None,M,001,2022_Jan_22_1757,contrast,2021.2.3,60.03031529546424,
0.4,6,3,57,2,188.30113320000237,None,188.30113320000237,None,188.30113320000237,None,right,1.2773107000393793,188.38451550004538,None,188.30113320000237,None,189.68410740001127,None,M,001,2022_Jan_22_1757,contrast,2021.2.3,60.03031529546424,
0.5,6,4,58,4,189.89981570001692,None,189.89981570001692,None,189.89981570001692,None,right,0.4465310000232421,189.98305260000052,None,189.89981570001692,None,190.45010470005218,None,M,001,2022_Jan_22_1757,contrast,2021.2.3,60.03031529546424,
0.3,6,5,59,1,190.66570900002262,None,190.66570900002262,None,190.66570900002262,None,left,1.1347804000251926,190.74912150000455,None,190.66570900002262,None,191.91526240005624,None,M,001,2022_Jan_22_1757,contrast,2021.2.3,60.03031529546424,
0.7,6,6,60,7,192.11468980001519,None,192.11468980001519,None,192.11468980001519,None,right,0.3902067000162788,192.19778950000182,None,192.11468980001519,None,192.61503240000457,None,M,001,2022_Jan_22_1757,contrast,2021.2.3,60.03031529546424,
0.45,6,7,61,3,192.8306550999987,None,192.8306550999987,None,192.8306550999987,None,left,1.178994000016246,192.9141603000462,None,192.8306550999987,None,194.11366120004095,None,M,001,2022_Jan_22_1757,contrast,2021.2.3,60.03031529546424,
0.1,6,8,62,0,194.3292740000179,None,194.3292740000179,None,194.3292740000179,None,left,0.8798398000071757,194.41262650000863,None,194.3292740000179,None,195.31266930000857,None,M,001,2022_Jan_22_1757,contrast,2021.2.3,60.03031529546424,
0.9,7,0,63,8,195.52840150002157,None,195.52840150002157,None,195.52840150002157,None,right,0.7844306000042707,195.61148850002792,None,195.52840150002157,None,196.4280143000069,None,M,001,2022_Jan_22_1757,contrast,2021.2.3,60.03031529546424,
0.45,7,1,64,3,196.62740430003032,None,196.62740430003032,None,196.62740430003032,None,right,1.5109030999592505,196.71053740003845,None,196.62740430003032,None,198.24388660001568,None,M,001,2022_Jan_22_1757,contrast,2021.2.3,60.03031529546424,
0.55,7,2,65,5,198.4592229000409,None,198.4592229000409,None,198.4592229000409,None,right,1.3438118999474682,198.5421090000309,None,198.4592229000409,None,199.90879910002695,None,M,001,2022_Jan_22_1757,contrast,2021.2.3,60.03031529546424,
0.7,7,3,66,7,200.1240973000531,None,200.1240973000531,None,200.1240973000531,None,right,0.5246204000432044,200.20745300001,None,200.1240973000531,None,200.75777710002149,None,M,001,2022_Jan_22_1757,contrast,2021.2.3,60.03031529546424,
0.6,7,4,67,6,200.97360900003696,None,200.97360900003696,None,200.97360900003696,None,right,1.7072521999944001,201.0567278000526,None,200.97360900003696,None,202.7898014000384,None,M,001,2022_Jan_22_1757,contrast,2021.2.3,60.03031529546424,
0.4,7,5,68,2,203.00518840004224,None,203.00518840004224,None,203.00518840004224,None,left,1.8194292000262067,203.08841590001248,None,203.00518840004224,None,204.93708420003532,None,M,001,2022_Jan_22_1757,contrast,2021.2.3,60.03031529546424,
0.1,7,6,69,0,205.13662470004056,None,205.13662470004056,None,205.13662470004056,None,left,0.9362740999786183,205.21970580000198,None,205.13662470004056,None,206.18604840000626,None,M,001,2022_Jan_22_1757,contrast,2021.2.3,60.03031529546424,
0.5,7,7,70,4,206.38554240000667,None,206.38554240000667,None,206.38554240000667,None,right,0.5672790000098757,206.46862330002477,None,206.38554240000667,None,207.0519256000407,None,M,001,2022_Jan_22_1757,contrast,2021.2.3,60.03031529546424,
0.3,7,8,71,1,207.25161770003615,None,207.25161770003615,None,207.25161770003615,None,left,0.7735825999989174,207.3345968000358,None,207.25161770003615,None,208.13476090005133,None,M,001,2022_Jan_22_1757,contrast,2021.2.3,60.03031529546424,
0.6,8,0,72,6,208.35051680001197,None,208.35051680001197,None,208.35051680001197,None,right,0.6828555000247434,208.43377000000328,None,208.35051680001197,None,209.13382510002702,None,M,001,2022_Jan_22_1757,contrast,2021.2.3,60.03031529546424,
0.4,8,1,73,2,209.3330993000418,None,209.3330993000418,None,209.3330993000418,None,right,9.043663200049195,209.41624700004468,None,209.3330993000418,None,218.47570810001343,None,M,001,2022_Jan_22_1757,contrast,2021.2.3,60.03031529546424,
0.45,8,2,74,3,218.67509620002238,None,218.67509620002238,None,218.67509620002238,None,right,0.7420542999752797,218.75813820003532,None,218.67509620002238,None,219.52506860002177,None,M,001,2022_Jan_22_1757,contrast,2021.2.3,60.03031529546424,
0.9,8,3,75,8,219.7405436000554,None,219.7405436000554,None,219.7405436000554,None,right,0.74827619997086,219.8236162000103,None,219.7405436000554,None,220.60726840002462,None,M,001,2022_Jan_22_1757,contrast,2021.2.3,60.03031529546424,
0.7,8,4,76,7,220.8228211000096,None,220.8228211000096,None,220.8228211000096,None,right,0.49928629997884855,220.90616400004365,None,220.8228211000096,None,221.42487350001466,None,M,001,2022_Jan_22_1757,contrast,2021.2.3,60.03031529546424,
0.55,8,5,77,5,221.63887270004489,None,221.63887270004489,None,221.63887270004489,None,right,1.6497904999996535,221.72211530001368,None,221.63887270004489,None,223.3880729000084,None,M,001,2022_Jan_22_1757,contrast,2021.2.3,60.03031529546424,
0.1,8,6,78,0,223.58747170004062,None,223.58747170004062,None,223.58747170004062,None,left,0.5496769999735989,223.670531700016,None,223.58747170004062,None,224.23702350002714,None,M,001,2022_Jan_22_1757,contrast,2021.2.3,60.03031529546424,
0.5,8,7,79,4,224.43653140001697,None,224.43653140001697,None,224.43653140001697,None,right,1.732115100021474,224.5198050000472,None,224.43653140001697,None,226.26890960003948,None,M,001,2022_Jan_22_1757,contrast,2021.2.3,60.03031529546424,
0.3,8,8,80,1,226.48456650000298,None,226.48456650000298,None,226.48456650000298,None,left,1.0775372000061907,226.56791920005344,None,226.48456650000298,None,227.66796680004336,None,M,001,2022_Jan_22_1757,contrast,2021.2.3,60.03031529546424,
0.6,9,0,81,6,227.88337380002486,None,227.88337380002486,None,227.88337380002486,None,right,0.47948639997048303,227.9667066000402,None,227.88337380002486,None,228.46725850005168,None,M,001,2022_Jan_22_1757,contrast,2021.2.3,60.03031529546424,
0.5,9,1,82,4,228.68270080001093,None,228.68270080001093,None,228.68270080001093,None,right,1.6473687999532558,228.7660056000459,None,228.68270080001093,None,230.43304080003873,None,M,001,2022_Jan_22_1757,contrast,2021.2.3,60.03031529546424,
0.4,9,2,83,2,230.64779850002378,None,230.64779850002378,None,230.64779850002378,None,left,0.6250297999940813,230.7308812000556,None,230.64779850002378,None,231.3810938000097,None,M,001,2022_Jan_22_1757,contrast,2021.2.3,60.03031529546424,
0.45,9,3,84,3,231.58023469999898,None,231.58023469999898,None,231.58023469999898,None,right,1.7254787000129,231.6633575000451,None,231.58023469999898,None,233.4126561000012,None,M,001,2022_Jan_22_1757,contrast,2021.2.3,60.03031529546424,
0.3,9,4,85,1,233.61176630004775,None,233.61176630004775,None,233.61176630004775,None,left,1.132879899989348,233.69504920003237,None,233.61176630004775,None,234.8448051000014,None,M,001,2022_Jan_22_1757,contrast,2021.2.3,60.03031529546424,
0.9,9,5,86,8,235.0604310000199,None,235.0604310000199,None,235.0604310000199,None,right,0.4843169000232592,235.14353610004764,None,235.0604310000199,None,235.64357070002006,None,M,001,2022_Jan_22_1757,contrast,2021.2.3,60.03031529546424,
0.7,9,6,87,7,235.84310430003097,None,235.84310430003097,None,235.84310430003097,None,right,0.8535549000371248,235.92627680004807,None,235.84310430003097,None,236.80925200000638,None,M,001,2022_Jan_22_1757,contrast,2021.2.3,60.03031529546424,
0.55,9,7,88,5,237.0086474000127,None,237.0086474000127,None,237.0086474000127,None,right,1.367917999974452,237.09199460002128,None,237.0086474000127,None,238.4916090000188,None,M,001,2022_Jan_22_1757,contrast,2021.2.3,60.03031529546424,
0.1,9,8,89,0,238.70733000000473,None,238.70733000000473,None,238.70733000000473,None,left,0.8532624000217766,238.790652100055,None,238.70733000000473,None,239.67345810000552,None,M,001,2022_Jan_22_1757,contrast,2021.2.3,60.03031529546424,
0.3,10,0,90,1,239.8729400000302,None,239.8729400000302,None,239.8729400000302,None,left,1.7037799999816343,239.95606400002725,None,239.8729400000302,None,241.6884335000068,None,M,001,2022_Jan_22_1757,contrast,2021.2.3,60.03031529546424,
0.7,10,1,91,7,241.88767020002706,None,241.88767020002706,None,241.88767020002706,None,right,0.7945321000297554,241.97111340000993,None,241.88767020002706,None,242.7879174000118,None,M,001,2022_Jan_22_1757,contrast,2021.2.3,60.03031529546424,
0.6,10,2,92,6,243.00358380004764,None,243.00358380004764,None,243.00358380004764,None,right,0.6211514999740757,243.08666830003494,None,243.00358380004764,None,243.73708550003357,None,M,001,2022_Jan_22_1757,contrast,2021.2.3,60.03031529546424,
0.9,10,3,93,8,243.9527830000152,None,243.9527830000152,None,243.9527830000152,None,right,0.47179129999130964,244.0360266000498,None,243.9527830000152,None,244.53655270003946,None,M,001,2022_Jan_22_1757,contrast,2021.2.3,60.03031529546424,
0.45,10,4,94,3,244.75219370005652,None,244.75219370005652,None,244.75219370005652,None,left,4.200613900029566,244.83535240002675,None,244.75219370005652,None,249.06570270005614,None,M,001,2022_Jan_22_1757,contrast,2021.2.3,60.03031529546424,
0.1,10,5,95,0,249.2647968000383,None,249.2647968000383,None,249.2647968000383,None,left,0.6968436000170186,249.34788580000168,None,249.2647968000383,None,250.0647561000078,None,M,001,2022_Jan_22_1757,contrast,2021.2.3,60.03031529546424,
0.5,10,6,96,4,250.28035720001208,None,250.28035720001208,None,250.28035720001208,None,right,1.4401993000064977,250.36383090005256,None,250.28035720001208,None,251.82966000004672,None,M,001,2022_Jan_22_1757,contrast,2021.2.3,60.03031529546424,
0.4,10,7,97,2,252.02893190004397,None,252.02893190004397,None,252.02893190004397,None,left,1.5488636999507435,252.11222350003663,None,252.02893190004397,None,253.67839730001288,None,M,001,2022_Jan_22_1757,contrast,2021.2.3,60.03031529546424,
0.55,10,8,98,5,253.89026910002576,None,253.89026910002576,None,253.89026910002576,None,right,0.4834176999866031,253.9606933000032,None,253.89026910002576,None,254.46121420001145,None,M,001,2022_Jan_22_1757,contrast,2021.2.3,60.03031529546424,
0.9,11,0,99,8,254.66037110000616,None,254.66037110000616,None,254.66037110000616,None,right,0.500260700006038,254.7437026000116,None,254.66037110000616,None,255.26106170000276,None,M,001,2022_Jan_22_1757,contrast,2021.2.3,60.03031529546424,
0.3,11,1,100,1,255.47608250001213,None,255.47608250001213,None,255.47608250001213,None,left,1.540568099997472,255.55940880003618,None,255.47608250001213,None,257.12523740000324,None,M,001,2022_Jan_22_1757,contrast,2021.2.3,60.03031529546424,
0.4,11,2,101,2,257.32476450002287,None,257.32476450002287,None,257.32476450002287,None,right,2.0783089000033215,257.40763410000363,None,257.32476450002287,None,259.5069403000525,None,M,001,2022_Jan_22_1757,contrast,2021.2.3,60.03031529546424,
0.1,11,3,102,0,259.7222850000253,None,259.7222850000253,None,259.7222850000253,None,left,3.006362200016156,259.80556700000307,None,259.7222850000253,None,262.8374523000093,None,M,001,2022_Jan_22_1757,contrast,2021.2.3,60.03031529546424,
0.55,11,4,103,5,263.0528343000333,None,263.0528343000333,None,263.0528343000333,None,right,0.587888500012923,263.135938899999,None,263.0528343000333,None,263.75251440005377,None,M,001,2022_Jan_22_1757,contrast,2021.2.3,60.03031529546424,
0.45,11,5,104,3,263.951961200044,None,263.951961200044,None,263.951961200044,None,right,0.840797700046096,264.0351857000496,None,263.951961200044,None,264.901892599999,None,M,001,2022_Jan_22_1757,contrast,2021.2.3,60.03031529546424,
0.5,11,6,105,4,265.10126790002687,None,265.10126790002687,None,265.10126790002687,None,right,3.0354784000082873,265.1843611000222,None,265.10126790002687,None,268.2487786000129,None,M,001,2022_Jan_22_1757,contrast,2021.2.3,60.03031529546424,
0.6,11,7,106,6,268.4479900000151,None,268.4479900000151,None,268.4479900000151,None,right,0.8246886999695562,268.5312912000227,None,268.4479900000151,None,269.3817232000292,None,M,001,2022_Jan_22_1757,contrast,2021.2.3,60.03031529546424,
0.7,11,8,107,7,269.59707090002485,None,269.59707090002485,None,269.59707090002485,None,right,0.5716686000232585,269.6802847000072,None,269.59707090002485,None,270.280962800025,None,M,001,2022_Jan_22_1757,contrast,2021.2.3,60.03031529546424,
0.45,12,0,108,3,270.49606030003633,None,270.49606030003633,None,270.49606030003633,None,right,1.8818648000014946,270.57959830004256,None,270.49606030003633,None,272.47992430004524,None,M,001,2022_Jan_22_1757,contrast,2021.2.3,60.03031529546424,
0.55,12,1,109,5,272.6942882000003,None,272.6942882000003,None,272.6942882000003,None,right,0.8978163999854587,272.7624608000042,None,272.6942882000003,None,273.67747940000845,None,M,001,2022_Jan_22_1757,contrast,2021.2.3,60.03031529546424,
0.4,12,2,110,2,273.87678480002796,None,273.87678480002796,None,273.87678480002796,None,right,4.596746399998665,273.9597610000055,None,273.87678480002796,None,278.5740293000126,None,M,001,2022_Jan_22_1757,contrast,2021.2.3,60.03031529546424,
0.9,12,3,111,8,278.78903600003105,None,278.78903600003105,None,278.78903600003105,None,right,0.5642080999678001,278.8724058000371,None,278.78903600003105,None,279.45618200005265,None,M,001,2022_Jan_22_1757,contrast,2021.2.3,60.03031529546424,
0.5,12,4,112,4,279.67162650002865,None,279.67162650002865,None,279.67162650002865,None,right,3.7777651000069454,279.7549055000418,None,279.67162650002865,None,283.55248350003967,None,M,001,2022_Jan_22_1757,contrast,2021.2.3,60.03031529546424,
0.6,12,5,113,6,283.7679005000391,None,283.7679005000391,None,283.7679005000391,None,right,2.0983260000357404,283.85115380003117,None,283.7679005000391,None,285.96731860004365,None,M,001,2022_Jan_22_1757,contrast,2021.2.3,60.03031529546424,
0.7,12,6,114,7,286.1825699000037,None,286.1825699000037,None,286.1825699000037,None,right,0.7541494999895804,286.2656786000007,None,286.1825699000037,None,287.049153800006,None,M,001,2022_Jan_22_1757,contrast,2021.2.3,60.03031529546424,
0.1,12,7,115,0,287.26485440001125,None,287.26485440001125,None,287.26485440001125,None,left,1.2560860000085086,287.34808020002674,None,287.26485440001125,None,288.63162560004275,None,M,001,2022_Jan_22_1757,contrast,2021.2.3,60.03031529546424,
0.3,12,8,116,1,288.8468630000134,None,288.8468630000134,None,288.8468630000134,None,right,0.6503228000365198,288.913625300047,None,288.8468630000134,None,289.58037989999866,None,M,001,2022_Jan_22_1757,contrast,2021.2.3,60.03031529546424,
0.7,13,0,117,7,289.7960844000336,None,289.7960844000336,None,289.7960844000336,None,right,0.6304376000189222,289.87929810001515,None,289.7960844000336,None,290.5299445000128,None,M,001,2022_Jan_22_1757,contrast,2021.2.3,60.03031529546424,
0.5,13,1,118,4,290.7453983000014,None,290.7453983000014,None,290.7453983000014,None,right,0.9129442000412382,290.82837709999876,None,290.7453983000014,None,291.7622639000183,None,M,001,2022_Jan_22_1757,contrast,2021.2.3,60.03031529546424,
0.1,13,2,119,0,291.97750280000037,None,291.97750280000037,None,291.97750280000037,None,left,0.6711561000556685,292.06066970003303,None,291.97750280000037,None,292.76072410005145,None,M,001,2022_Jan_22_1757,contrast,2021.2.3,60.03031529546424,
0.9,13,3,120,8,292.96000910003204,None,292.96000910003204,None,292.96000910003204,None,right,0.45693410001695156,293.0432083000196,None,292.96000910003204,None,293.52699070004746,None,M,001,2022_Jan_22_1757,contrast,2021.2.3,60.03031529546424,
0.4,13,4,121,2,293.74261820001993,None,293.74261820001993,None,293.74261820001993,None,left,1.673862099996768,293.8260632000165,None,293.74261820001993,None,295.5256770999986,None,M,001,2022_Jan_22_1757,contrast,2021.2.3,60.03031529546424,
0.45,13,5,122,3,295.7408986000228,None,295.7408986000228,None,295.7408986000228,None,right,0.4779251999570988,295.82429190003313,None,295.7408986000228,None,296.32497180002974,None,M,001,2022_Jan_22_1757,contrast,2021.2.3,60.03031529546424,
0.3,13,6,123,1,296.5410601000185,None,296.5410601000185,None,296.5410601000185,None,left,1.310851999965962,296.6233139000251,None,296.5410601000185,None,297.95683500001905,None,M,001,2022_Jan_22_1757,contrast,2021.2.3,60.03031529546424,
0.55,13,7,124,5,298.17213850002736,None,298.17213850002736,None,298.17213850002736,None,right,0.6366467999760062,298.25524430000223,None,298.17213850002736,None,298.9224965000176,None,M,001,2022_Jan_22_1757,contrast,2021.2.3,60.03031529546424,
0.6,13,8,125,6,299.13798410003074,None,299.13798410003074,None,299.13798410003074,None,right,0.7747726999805309,299.22119350003777,None,299.13798410003074,None,300.0217219000333,None,M,001,2022_Jan_22_1757,contrast,2021.2.3,60.03031529546424,
0.55,14,0,126,5,300.2369111000444,None,300.2369111000444,None,300.2369111000444,None,right,0.5875939000397921,300.32028240000363,None,300.2369111000444,None,300.93756790005136,None,M,001,2022_Jan_22_1757,contrast,2021.2.3,60.03031529546424,
0.7,14,1,127,7,301.15363990003243,None,301.15363990003243,None,301.15363990003243,None,right,0.5359733000514098,301.2359612000291,None,301.15363990003243,None,301.80274560005637,None,M,001,2022_Jan_22_1757,contrast,2021.2.3,60.03031529546424,
0.1,14,2,128,0,302.0019759000279,None,302.0019759000279,None,302.0019759000279,None,left,0.9505434000166133,302.0853393000434,None,302.0019759000279,None,303.05199200002244,None,M,001,2022_Jan_22_1757,contrast,2021.2.3,60.03031529546424,
0.6,14,3,129,6,303.26764340000227,None,303.26764340000227,None,303.26764340000227,None,right,0.5168985000345856,303.35100710002007,None,303.26764340000227,None,303.8846652000211,None,M,001,2022_Jan_22_1757,contrast,2021.2.3,60.03031529546424,
0.4,14,4,130,2,304.10026300000027,None,304.10026300000027,None,304.10026300000027,None,right,0.8363971000071615,304.18352300004335,None,304.10026300000027,None,305.04994050000096,None,M,001,2022_Jan_22_1757,contrast,2021.2.3,60.03031529546424,
0.9,14,5,131,8,305.24942160001956,None,305.24942160001956,None,305.24942160001956,None,right,0.5998680000193417,305.3325821000035,None,305.24942160001956,None,305.9496102000121,None,M,001,2022_Jan_22_1757,contrast,2021.2.3,60.03031529546424,
0.5,14,6,132,4,306.16537719999906,None,306.16537719999906,None,306.16537719999906,None,right,0.6294727000058629,306.24859470000956,None,306.16537719999906,None,306.898581400048,None,M,001,2022_Jan_22_1757,contrast,2021.2.3,60.03031529546424,
0.45,14,7,133,3,307.1142867000308,None,307.1142867000308,None,307.1142867000308,None,right,2.654401899955701,307.19774080003845,None,307.1142867000308,None,309.8796770000481,None,M,001,2022_Jan_22_1757,contrast,2021.2.3,60.03031529546424,
0.3,14,8,134,1,310.095202000055,None,310.095202000055,None,310.095202000055,None,left,0.8579059999901801,310.178202900046,None,310.095202000055,None,311.06191310001304,None,M,001,2022_Jan_22_1757,contrast,2021.2.3,60.03031529546424,
0.5,15,0,135,4,311.2776530000265,None,311.2776530000265,None,311.2776530000265,None,right,1.1328337999875657,311.36059840000235,None,311.2776530000265,None,312.5110433000373,None,M,001,2022_Jan_22_1757,contrast,2021.2.3,60.03031529546424,
0.6,15,1,136,6,312.7260697000311,None,312.7260697000311,None,312.7260697000311,None,right,0.7223646000493318,312.8094488000497,None,312.7260697000311,None,313.56045980000636,None,M,001,2022_Jan_22_1757,contrast,2021.2.3,60.03031529546424,
0.9,15,2,137,8,313.7760106000351,None,313.7760106000351,None,313.7760106000351,None,right,0.6335445999866351,313.8583913000184,None,313.7760106000351,None,314.5089426000486,None,M,001,2022_Jan_22_1757,contrast,2021.2.3,60.03031529546424,
0.3,15,3,138,1,314.7242074000533,None,314.7242074000533,None,314.7242074000533,None,left,0.8041734999860637,314.8076926000067,None,314.7242074000533,None,315.6410775000113,None,M,001,2022_Jan_22_1757,contrast,2021.2.3,60.03031529546424,
0.1,15,4,139,0,315.8567047000397,None,315.8567047000397,None,315.8567047000397,None,left,0.551978399977088,315.9399357000366,None,315.8567047000397,None,316.52346320002107,None,M,001,2022_Jan_22_1757,contrast,2021.2.3,60.03031529546424,
0.7,15,5,140,7,316.7393958000466,None,316.7393958000466,None,316.7393958000466,None,right,0.5991491999593563,316.8224004000076,None,316.7393958000466,None,317.4392076000222,None,M,001,2022_Jan_22_1757,contrast,2021.2.3,60.03031529546424,
0.4,15,6,141,2,317.65498340001795,None,317.65498340001795,None,317.65498340001795,None,left,4.849171099951491,317.73870540002827,None,317.65498340001795,None,322.6180128999986,None,M,001,2022_Jan_22_1757,contrast,2021.2.3,60.03031529546424,
0.45,15,7,142,3,322.8171887000208,None,322.8171887000208,None,322.8171887000208,None,right,4.008954000019003,322.90057830000296,None,322.8171887000208,None,326.9310257000034,None,M,001,2022_Jan_22_1757,contrast,2021.2.3,60.03031529546424,
0.55,15,8,143,5,327.14682710001944,None,327.14682710001944,None,327.14682710001944,None,right,1.3438998999772593,327.2301599000348,None,327.14682710001944,None,328.5968276000349,None,M,001,2022_Jan_22_1757,contrast,2021.2.3,60.03031529546424,
0.55,16,0,144,5,328.8120830000262,None,328.8120830000262,None,328.8120830000262,None,right,1.0206542000523768,328.8951941000414,None,328.8120830000262,None,329.9454240000341,None,M,001,2022_Jan_22_1757,contrast,2021.2.3,60.03031529546424,
0.1,16,1,145,0,330.1608825000003,None,330.1608825000003,None,330.1608825000003,None,left,0.6162525999825448,330.24419870000565,None,330.1608825000003,None,330.8773443000391,None,M,001,2022_Jan_22_1757,contrast,2021.2.3,60.03031529546424,
0.9,16,2,146,8,331.07680670003174,None,331.07680670003174,None,331.07680670003174,None,right,0.46764789998997003,331.16027260001283,None,331.07680670003174,None,331.6607792000286,None,M,001,2022_Jan_22_1757,contrast,2021.2.3,60.03031529546424,
0.45,16,3,147,3,331.87591420003446,None,331.87591420003446,None,331.87591420003446,None,right,1.9724153999704868,331.9595743000391,None,331.87591420003446,None,333.9594094000058,None,M,001,2022_Jan_22_1757,contrast,2021.2.3,60.03031529546424,
0.5,16,4,148,4,334.17407200002344,None,334.17407200002344,None,334.17407200002344,None,right,0.7473360999720171,334.2571576000191,None,334.17407200002344,None,335.0246108000283,None,M,001,2022_Jan_22_1757,contrast,2021.2.3,60.03031529546424,
0.6,16,5,149,6,335.2397870999994,None,335.2397870999994,None,335.2397870999994,None,right,1.4727857999969274,335.32329890003894,None,335.2397870999994,None,336.8229464000324,None,M,001,2022_Jan_22_1757,contrast,2021.2.3,60.03031529546424,
0.7,16,6,150,7,337.0382778000203,None,337.0382778000203,None,337.0382778000203,None,right,0.5544411999871954,337.1213719000225,None,337.0382778000203,None,337.7046828000457,None,M,001,2022_Jan_22_1757,contrast,2021.2.3,60.03031529546424,
0.4,16,7,151,2,337.9042219000403,None,337.9042219000403,None,337.9042219000403,None,right,5.22603409999283,337.9873643000028,None,337.9042219000403,None,343.234050100029,None,M,001,2022_Jan_22_1757,contrast,2021.2.3,60.03031529546424,
0.3,16,8,152,1,343.44936300005065,None,343.44936300005065,None,343.44936300005065,None,left,1.4237550999969244,343.532508000033,None,343.44936300005065,None,344.9818196000415,None,M,001,2022_Jan_22_1757,contrast,2021.2.3,60.03031529546424,
0.55,17,0,153,5,345.1810034000082,None,345.1810034000082,None,345.1810034000082,None,right,0.6194588000071235,345.2644284000271,None,345.1810034000082,None,345.9144017000217,None,M,001,2022_Jan_22_1757,contrast,2021.2.3,60.03031529546424,
0.5,17,1,154,4,346.11375300004147,None,346.11375300004147,None,346.11375300004147,None,right,0.6325642000301741,346.19693900004495,None,346.11375300004147,None,346.84751510003116,None,M,001,2022_Jan_22_1757,contrast,2021.2.3,60.03031529546424,
0.1,17,2,155,0,347.0629302000161,None,347.0629302000161,None,347.0629302000161,None,left,4.130082400050014,347.146119400044,None,347.0629302000161,None,351.29339320003055,None,M,001,2022_Jan_22_1757,contrast,2021.2.3,60.03031529546424,
0.4,17,3,156,2,351.4939036000287,None,351.4939036000287,None,351.4939036000287,None,right,1.2034015000099316,351.57644850004,None,351.4939036000287,None,352.8100683000521,None,M,001,2022_Jan_22_1757,contrast,2021.2.3,60.03031529546424,
0.6,17,4,157,6,353.0243123000255,None,353.0243123000255,None,353.0243123000255,None,right,0.6005851999507286,353.1074297000305,None,353.0243123000255,None,353.7245188000379,None,M,001,2022_Jan_22_1757,contrast,2021.2.3,60.03031529546424,
0.45,17,5,158,3,353.9399708000128,None,353.9399708000128,None,353.9399708000128,None,right,0.9163647999521345,354.0235448000021,None,353.9399708000128,None,354.95737730001565,None,M,001,2022_Jan_22_1757,contrast,2021.2.3,60.03031529546424,
0.3,17,6,159,1,355.1722044000053,None,355.1722044000053,None,355.1722044000053,None,right,0.5166507000103593,355.25565070001176,None,355.1722044000053,None,355.7895862000296,None,M,001,2022_Jan_22_1757,contrast,2021.2.3,60.03031529546424,
0.7,17,7,160,7,356.0049565000227,None,356.0049565000227,None,356.0049565000227,None,right,0.4358102999976836,356.0881727000233,None,356.0049565000227,None,356.5556883000536,None,M,001,2022_Jan_22_1757,contrast,2021.2.3,60.03031529546424,
0.9,17,8,161,8,356.77107160002925,None,356.77107160002925,None,356.77107160002925,None,right,0.43743009999161586,356.8544305000105,None,356.77107160002925,None,357.32155500003137,None,M,001,2022_Jan_22_1757,contrast,2021.2.3,60.03031529546424,
0.3,18,0,162,1,357.53702960000373,None,357.53702960000373,None,357.53702960000373,None,left,1.6236848999978974,357.6204156000167,None,357.53702960000373,None,359.2699079000158,None,M,001,2022_Jan_22_1757,contrast,2021.2.3,60.03031529546424,
0.1,18,1,163,0,359.4853226999985,None,359.4853226999985,None,359.4853226999985,None,left,0.7640482999850065,359.56848320004065,None,359.4853226999985,None,360.3528792000143,None,M,001,2022_Jan_22_1757,contrast,2021.2.3,60.03031529546424,
0.6,18,2,164,6,360.5675985000562,None,360.5675985000562,None,360.5675985000562,None,right,0.38495390000753105,360.6509394000168,None,360.5675985000562,None,361.06841540004825,None,M,001,2022_Jan_22_1757,contrast,2021.2.3,60.03031529546424,
0.7,18,3,165,7,361.28377190005267,None,361.28377190005267,None,361.28377190005267,None,right,0.6795383000280708,361.36699100001715,None,361.28377190005267,None,362.0681376000284,None,M,001,2022_Jan_22_1757,contrast,2021.2.3,60.03031529546424,
0.5,18,4,166,4,362.2829211000353,None,362.2829211000353,None,362.2829211000353,None,right,2.3498491999926046,362.3662261000136,None,362.2829211000353,None,364.7486184000154,None,M,001,2022_Jan_22_1757,contrast,2021.2.3,60.03031529546424,
0.55,18,5,167,5,364.96373940003105,None,364.96373940003105,None,364.96373940003105,None,right,1.9890825999900699,365.0469457000145,None,364.96373940003105,None,367.06300150003517,None,M,001,2022_Jan_22_1757,contrast,2021.2.3,60.03031529546424,
0.45,18,6,168,3,367.278517400031,None,367.278517400031,None,367.278517400031,None,right,2.6343123000115156,367.3618236000184,None,367.278517400031,None,370.02690590004204,None,M,001,2022_Jan_22_1757,contrast,2021.2.3,60.03031529546424,
0.4,18,7,169,2,370.24246340000536,None,370.24246340000536,None,370.24246340000536,None,right,0.7278448000433855,370.3259685000521,None,370.24246340000536,None,371.07690600003116,None,M,001,2022_Jan_22_1757,contrast,2021.2.3,60.03031529546424,
0.9,18,8,170,8,371.29165870003635,None,371.29165870003635,None,371.29165870003635,None,right,0.5248782000271603,371.3749687000527,None,371.29165870003635,None,371.92613020003773,None,M,001,2022_Jan_22_1757,contrast,2021.2.3,60.03031529546424,
0.3,19,0,171,1,372.14081120002083,None,372.14081120002083,None,372.14081120002083,None,right,3.1477661000099033,372.2242231000564,None,372.14081120002083,None,375.38955250004074,None,M,001,2022_Jan_22_1757,contrast,2021.2.3,60.03031529546424,
0.6,19,1,172,6,375.6045630000299,None,375.6045630000299,None,375.6045630000299,None,right,0.5000125999795273,375.687785600021,None,375.6045630000299,None,376.2049212999991,None,M,001,2022_Jan_22_1757,contrast,2021.2.3,60.03031529546424,
0.1,19,2,173,0,376.42048890003935,None,376.42048890003935,None,376.42048890003935,None,left,1.1398892000433989,376.50406550004845,None,376.42048890003935,None,377.6709718000493,None,M,001,2022_Jan_22_1757,contrast,2021.2.3,60.03031529546424,
0.5,19,3,174,4,377.88610719999997,None,377.88610719999997,None,377.88610719999997,None,right,0.5066942000412382,377.9693414000212,None,377.88610719999997,None,378.50327540002763,None,M,001,2022_Jan_22_1757,contrast,2021.2.3,60.03031529546424,
0.7,19,4,175,7,378.7184284000541,None,378.7184284000541,None,378.7184284000541,None,right,0.5379747000406496,378.8018909000093,None,378.7184284000541,None,379.36911900003906,None,M,001,2022_Jan_22_1757,contrast,2021.2.3,60.03031529546424,
0.9,19,5,176,8,379.5843133000308,None,379.5843133000308,None,379.5843133000308,None,right,0.5202313999761827,379.66771540004993,None,379.5843133000308,None,380.218006900046,None,M,001,2022_Jan_22_1757,contrast,2021.2.3,60.03031529546424,
0.4,19,6,177,2,380.43351520004217,None,380.43351520004217,None,380.43351520004217,None,right,1.6384569000219926,380.5176503000548,None,380.43351520004217,None,382.1832395000383,None,M,001,2022_Jan_22_1757,contrast,2021.2.3,60.03031529546424,
0.45,19,7,178,3,382.39871860004496,None,382.39871860004496,None,382.39871860004496,None,right,0.4900366999791004,382.48193350003567,None,382.39871860004496,None,382.99945010000374,None,M,001,2022_Jan_22_1757,contrast,2021.2.3,60.03031529546424,
0.55,19,8,179,5,383.2144443000434,None,383.2144443000434,None,383.2144443000434,None,right,0.47393750003539026,383.2980160000152,None,383.2144443000434,None,383.7982400000328,None,M,001,2022_Jan_22_1757,contrast,2021.2.3,60.03031529546424,
0.5,20,0,180,4,384.0139650000492,None,384.0139650000492,None,384.0139650000492,None,right,1.274948000034783,384.0971527000074,None,384.0139650000492,None,385.39719580003293,None,M,001,2022_Jan_22_1757,contrast,2021.2.3,60.03031529546424,
0.7,20,1,181,7,385.6124578000163,None,385.6124578000163,None,385.6124578000163,None,right,0.4924110000138171,385.6956638000556,None,385.6124578000163,None,386.2126255000476,None,M,001,2022_Jan_22_1757,contrast,2021.2.3,60.03031529546424,
0.4,20,2,182,2,386.4283885000041,None,386.4283885000041,None,386.4283885000041,None,right,1.483698199968785,386.5122349000303,None,386.4283885000041,None,388.027821900032,None,M,001,2022_Jan_22_1757,contrast,2021.2.3,60.03031529546424,
0.55,20,3,183,5,388.24360750004416,None,388.24360750004416,None,388.24360750004416,None,right,1.2371510000084527,388.3266593000153,None,388.24360750004416,None,389.5931462000008,None,M,001,2022_Jan_22_1757,contrast,2021.2.3,60.03031529546424,
0.6,20,4,184,6,389.8088677000487,None,389.8088677000487,None,389.8088677000487,None,right,0.5837853999692015,389.89212030003546,None,389.8088677000487,None,390.49265880003804,None,M,001,2022_Jan_22_1757,contrast,2021.2.3,60.03031529546424,
0.1,20,5,185,0,390.70814130001236,None,390.70814130001236,None,390.70814130001236,None,left,0.6784288000199012,390.79149340000004,None,390.70814130001236,None,391.4917637000326,None,M,001,2022_Jan_22_1757,contrast,2021.2.3,60.03031529546424,
0.3,20,6,186,1,391.7071273000329,None,391.7071273000329,None,391.7071273000329,None,left,0.8947512999875471,391.7905553000164,None,391.7071273000329,None,392.7072098000208,None,M,001,2022_Jan_22_1757,contrast,2021.2.3,60.03031529546424,
0.45,20,7,187,3,392.92284950002795,None,392.92284950002795,None,392.92284950002795,None,right,1.5334055999992415,393.00641240004916,None,392.92284950002795,None,394.5722452000482,None,M,001,2022_Jan_22_1757,contrast,2021.2.3,60.03031529546424,
0.9,20,8,188,8,394.7878483000095,None,394.7878483000095,None,394.7878483000095,None,right,0.516765000007581,394.87109340005554,None,394.7878483000095,None,395.40492910001194,None,M,001,2022_Jan_22_1757,contrast,2021.2.3,60.03031529546424,
0.3,21,0,189,1,395.620435000048,None,395.620435000048,None,395.620435000048,None,left,1.124392599973362,395.70374550001,None,395.620435000048,None,396.853583100019,None,M,001,2022_Jan_22_1757,contrast,2021.2.3,60.03031529546424,
0.7,21,1,190,7,397.0693619000376,None,397.0693619000376,None,397.0693619000376,None,right,0.3802991000120528,397.152574000007,None,397.0693619000376,None,397.5532293000142,None,M,001,2022_Jan_22_1757,contrast,2021.2.3,60.03031529546424,
0.5,21,2,191,4,397.76864810002735,None,397.76864810002735,None,397.76864810002735,None,right,0.7999012999935076,397.8519633000251,None,397.76864810002735,None,398.6693512000493,None,M,001,2022_Jan_22_1757,contrast,2021.2.3,60.03031529546424,
0.1,21,3,192,0,398.88436030002777,None,398.88436030002777,None,398.88436030002777,None,left,0.48449689999688417,398.967488000053,None,398.88436030002777,None,399.46788650000235,None,M,001,2022_Jan_22_1757,contrast,2021.2.3,60.03031529546424,
0.55,21,4,193,5,399.683447300049,None,399.683447300049,None,399.683447300049,None,right,0.48520719999214634,399.7667880000081,None,399.683447300049,None,400.2837125000078,None,M,001,2022_Jan_22_1757,contrast,2021.2.3,60.03031529546424,
0.45,21,5,194,3,400.4830198000418,None,400.4830198000418,None,400.4830198000418,None,right,2.0059553000028245,400.56619420001516,None,400.4830198000418,None,402.59846750000725,None,M,001,2022_Jan_22_1757,contrast,2021.2.3,60.03031529546424,
0.6,21,6,195,6,402.79840890003834,None,402.79840890003834,None,402.79840890003834,None,right,0.5709544999990612,402.8809034000151,None,402.79840890003834,None,403.4814641000121,None,M,001,2022_Jan_22_1757,contrast,2021.2.3,60.03031529546424,
0.9,21,7,196,8,403.6970967000234,None,403.6970967000234,None,403.6970967000234,None,right,0.6330578000051901,403.7799771000282,None,403.6970967000234,None,404.43037580000237,None,M,001,2022_Jan_22_1757,contrast,2021.2.3,60.03031529546424,
0.4,21,8,197,2,404.6458076000563,None,404.6458076000563,None,404.6458076000563,None,right,1.2828977999743074,404.7292008000077,None,404.6458076000563,None,406.02958500001114,None,M,001,2022_Jan_22_1757,contrast,2021.2.3,60.03031529546424,
0.45,22,0,198,3,406.2446879000054,None,406.2446879000054,None,406.2446879000054,None,right,1.3000791000085883,406.327743700007,None,406.2446879000054,None,407.6441898000194,None,M,001,2022_Jan_22_1757,contrast,2021.2.3,60.03031529546424,
0.4,22,1,199,2,407.85996220004745,None,407.85996220004745,None,407.85996220004745,None,right,1.268694200029131,407.94324780005263,None,407.85996220004745,None,409.24226680002175,None,M,001,2022_Jan_22_1757,contrast,2021.2.3,60.03031529546424,
0.5,22,2,200,4,409.4416665000026,None,409.4416665000026,None,409.4416665000026,None,right,0.6795235000317916,409.5252240000409,None,409.4416665000026,None,410.22560410003643,None,M,001,2022_Jan_22_1757,contrast,2021.2.3,60.03031529546424,
0.7,22,3,201,7,410.4408893000218,None,410.4408893000218,None,410.4408893000218,None,right,0.5615452000056393,410.5242709000013,None,410.4408893000218,None,411.10818010004004,None,M,001,2022_Jan_22_1757,contrast,2021.2.3,60.03031529546424,
0.6,22,4,202,6,411.3233375000418,None,411.3233375000418,None,411.3233375000418,None,right,1.0532377999625169,411.40668190002907,None,411.3233375000418,None,412.48967260000063,None,M,001,2022_Jan_22_1757,contrast,2021.2.3,60.03031529546424,
0.9,22,5,203,8,412.68899270001566,None,412.68899270001566,None,412.68899270001566,None,right,0.840012900007423,412.77208450000035,None,412.68899270001566,None,413.639310700004,None,M,001,2022_Jan_22_1757,contrast,2021.2.3,60.03031529546424,
0.1,22,6,204,0,413.8546833000146,None,413.8546833000146,None,413.8546833000146,None,left,1.9951052999822423,413.93794770003296,None,413.8546833000146,None,415.9541413000552,None,M,001,2022_Jan_22_1757,contrast,2021.2.3,60.03031529546424,
0.55,22,7,205,5,416.16923090000637,None,416.16923090000637,None,416.16923090000637,None,right,0.6234755999757908,416.25263840000844,None,416.16923090000637,None,416.9027083000401,None,M,001,2022_Jan_22_1757,contrast,2021.2.3,60.03031529546424,
0.3,22,8,206,1,417.1184133000206,None,417.1184133000206,None,417.1184133000206,None,left,1.1469378999900073,417.2015457000234,None,417.1184133000206,None,418.3684191000066,None,M,001,2022_Jan_22_1757,contrast,2021.2.3,60.03031529546424,
0.55,23,0,207,5,418.5837572000455,None,418.5837572000455,None,418.5837572000455,None,right,0.4821102999849245,418.6670761000132,None,418.5837572000455,None,419.16778360004537,None,M,001,2022_Jan_22_1757,contrast,2021.2.3,60.03031529546424,
0.5,23,1,208,4,419.3829802000546,None,419.3829802000546,None,419.3829802000546,None,right,1.1056641999748535,419.46636000002036,None,419.3829802000546,None,420.5997051000013,None,M,001,2022_Jan_22_1757,contrast,2021.2.3,60.03031529546424,
0.7,23,2,209,7,420.7988323000027,None,420.7988323000027,None,420.7988323000027,None,right,0.45849400002043694,420.8816713000415,None,420.7988323000027,None,421.3671564000542,None,M,001,2022_Jan_22_1757,contrast,2021.2.3,60.03031529546424,
0.1,23,3,210,0,421.5811120000435,None,421.5811120000435,None,421.5811120000435,None,left,1.4674549999763258,421.66441060003126,None,421.5811120000435,None,423.1636085000355,None,M,001,2022_Jan_22_1757,contrast,2021.2.3,60.03031529546424,
0.6,23,4,211,6,423.36310100002447,None,423.36310100002447,None,423.36310100002447,None,right,0.66317719995277,423.44638790003955,None,423.36310100002447,None,424.13009859999875,None,M,001,2022_Jan_22_1757,contrast,2021.2.3,60.03031529546424,
0.4,23,5,212,2,424.345322600042,None,424.345322600042,None,424.345322600042,None,right,1.8395269000320695,424.4285023000557,None,424.345322600042,None,426.29441850003786,None,M,001,2022_Jan_22_1757,contrast,2021.2.3,60.03031529546424,
0.45,23,6,213,3,426.4935776000493,None,426.4935776000493,None,426.4935776000493,None,right,1.261076700000558,426.5768156000413,None,426.4935776000493,None,427.86019740003394,None,M,001,2022_Jan_22_1757,contrast,2021.2.3,60.03031529546424,
0.9,23,7,214,8,428.0756894000224,None,428.0756894000224,None,428.0756894000224,None,right,0.4632082000025548,428.15877660003025,None,428.0756894000224,None,428.6426356000011,None,M,001,2022_Jan_22_1757,contrast,2021.2.3,60.03031529546424,
0.3,23,8,215,1,428.8583688000217,None,428.8583688000217,None,428.8583688000217,None,left,1.2632238999940455,428.94146280002315,None,428.8583688000217,None,430.2249018000439,None,M,001,2022_Jan_22_1757,contrast,2021.2.3,60.03031529546424,
0.55,24,0,216,5,430.44006610004,None,430.44006610004,None,430.44006610004,None,right,0.4661653999937698,430.5235363000538,None,430.44006610004,None,431.0077908000094,None,M,001,2022_Jan_22_1757,contrast,2021.2.3,60.03031529546424,
0.4,24,1,217,2,431.2228471999988,None,431.2228471999988,None,431.2228471999988,None,right,3.3140862000291236,431.306023000041,None,431.2228471999988,None,434.6372895000386,None,M,001,2022_Jan_22_1757,contrast,2021.2.3,60.03031529546424,
0.1,24,2,218,0,434.85365210002055,None,434.85365210002055,None,434.85365210002055,None,left,0.4838362999726087,434.9360840000445,None,434.85365210002055,None,435.43701110000256,None,M,001,2022_Jan_22_1757,contrast,2021.2.3,60.03031529546424,
0.6,24,3,219,6,435.65211210004054,None,435.65211210004054,None,435.65211210004054,None,right,0.4684485999750905,435.7354524000548,None,435.65211210004054,None,436.2367349000415,None,M,001,2022_Jan_22_1757,contrast,2021.2.3,60.03031529546424,
0.3,24,4,220,1,436.45161810005084,None,436.45161810005084,None,436.45161810005084,None,left,4.437103799951728,436.53496980003547,None,436.45161810005084,None,440.99796890001744,None,M,001,2022_Jan_22_1757,contrast,2021.2.3,60.03031529546424,
0.5,24,5,221,4,441.1974023000221,None,441.1974023000221,None,441.1974023000221,None,right,0.4134621000266634,441.28060130000813,None,441.1974023000221,None,441.71421290002763,None,M,001,2022_Jan_22_1757,contrast,2021.2.3,60.03031529546424,
0.7,24,6,222,7,441.9134393000277,None,441.9134393000277,None,441.9134393000277,None,right,0.4804619000060484,441.99653810000746,None,441.9134393000277,None,442.4974381000502,None,M,001,2022_Jan_22_1757,contrast,2021.2.3,60.03031529546424,
0.45,24,7,223,3,442.712618700054,None,442.712618700054,None,442.712618700054,None,right,0.6878546999651007,442.7959765000269,None,442.712618700054,None,443.5125048000482,None,M,001,2022_Jan_22_1757,contrast,2021.2.3,60.03031529546424,
0.9,24,8,224,8,443.7118720000144,None,443.7118720000144,None,443.7118720000144,None,right,0.47283210000023246,443.7951716000098,None,443.7118720000144,None,444.29552970000077,None,M,001,2022_Jan_22_1757,contrast,2021.2.3,60.03031529546424,
0.3,25,0,225,1,444.5116619000328,None,444.5116619000328,None,444.5116619000328,None,left,1.6430596999707632,444.594489900046,None,444.5116619000328,None,446.26093910000054,None,M,001,2022_Jan_22_1757,contrast,2021.2.3,60.03031529546424,
0.45,25,1,226,3,446.4760308000259,None,446.4760308000259,None,446.4760308000259,None,right,0.5086303999996744,446.55930150003405,None,446.4760308000259,None,447.0929441000335,None,M,001,2022_Jan_22_1757,contrast,2021.2.3,60.03031529546424,
0.9,25,2,227,8,447.3087254000129,None,447.3087254000129,None,447.3087254000129,None,right,0.47823470004368573,447.39205410005525,None,447.3087254000129,None,447.8928681000252,None,M,001,2022_Jan_22_1757,contrast,2021.2.3,60.03031529546424,
0.6,25,3,228,6,448.10809990001144,None,448.10809990001144,None,448.10809990001144,None,right,0.5087130999891087,448.19127750000916,None,448.10809990001144,None,448.7250146000297,None,M,001,2022_Jan_22_1757,contrast,2021.2.3,60.03031529546424,
0.1,25,4,229,0,448.94060349999927,None,448.94060349999927,None,448.94060349999927,None,left,0.5239973000134341,449.0240421000053,None,448.94060349999927,None,449.57453090004856,None,M,001,2022_Jan_22_1757,contrast,2021.2.3,60.03031529546424,
0.7,25,5,230,7,449.78999200003454,None,449.78999200003454,None,449.78999200003454,None,right,0.4907202000031248,449.87326930003474,None,449.78999200003454,None,450.3902494000504,None,M,001,2022_Jan_22_1757,contrast,2021.2.3,60.03031529546424,
0.5,25,6,231,4,450.60587970004417,None,450.60587970004417,None,450.60587970004417,None,right,0.3967069000354968,450.68899450002937,None,450.60587970004417,None,451.10621810000157,None,M,001,2022_Jan_22_1757,contrast,2021.2.3,60.03031529546424,
0.4,25,7,232,2,451.32184950000374,None,451.32184950000374,None,451.32184950000374,None,right,1.5992990999948233,451.4050731000025,None,451.32184950000374,None,453.0211419000407,None,M,001,2022_Jan_22_1757,contrast,2021.2.3,60.03031529546424,
0.55,25,8,233,5,453.22042150003836,None,453.22042150003836,None,453.22042150003836,None,right,0.43642570002702996,453.3034019000479,None,453.22042150003836,None,453.7703667000169,None,M,001,2022_Jan_22_1757,contrast,2021.2.3,60.03031529546424,
0.7,26,0,234,7,453.9697591000004,None,453.9697591000004,None,453.9697591000004,None,right,0.47095560003072023,454.05288640002254,None,453.9697591000004,None,454.55351510003675,None,M,001,2022_Jan_22_1757,contrast,2021.2.3,60.03031529546424,
0.55,26,1,235,5,454.76894360000733,None,454.76894360000733,None,454.76894360000733,None,right,2.280948499974329,454.8525425000116,None,454.76894360000733,None,457.1527078000363,None,M,001,2022_Jan_22_1757,contrast,2021.2.3,60.03031529546424,
0.9,26,2,236,8,457.3671009000391,None,457.3671009000391,None,457.3671009000391,None,right,2.259365700010676,457.4503139000153,None,457.3671009000391,None,459.7340231000562,None,M,001,2022_Jan_22_1757,contrast,2021.2.3,60.03031529546424,
0.3,26,3,237,1,459.9477409000392,None,459.9477409000392,None,459.9477409000392,None,right,1.8849467999534681,460.0311463000253,None,459.9477409000392,None,461.9468343000044,None,M,001,2022_Jan_22_1757,contrast,2021.2.3,60.03031529546424,
0.1,26,4,238,0,462.1624745000154,None,462.1624745000154,None,462.1624745000154,None,left,0.47035589994629845,462.2456154000247,None,462.1624745000154,None,462.7458933000453,None,M,001,2022_Jan_22_1757,contrast,2021.2.3,60.03031529546424,
0.45,26,5,239,3,462.9449751000502,None,462.9449751000502,None,462.9449751000502,None,right,5.911761800001841,463.02840030001244,None,462.9449751000502,None,468.95799490000354,None,M,001,2022_Jan_22_1757,contrast,2021.2.3,60.03031529546424,
0.5,26,6,240,4,469.17318300000625,None,469.17318300000625,None,469.17318300000625,None,right,2.7092763000400737,469.25637330004247,None,469.17318300000625,None,471.98862810002174,None,M,001,2022_Jan_22_1757,contrast,2021.2.3,60.03031529546424,
0.4,26,7,241,2,472.2037235000171,None,472.2037235000171,None,472.2037235000171,None,right,3.5811195999849588,472.28682280000066,None,472.2037235000171,None,475.8850564000313,None,M,001,2022_Jan_22_1757,contrast,2021.2.3,60.03031529546424,
0.6,26,8,242,6,476.1003167000017,None,476.1003167000017,None,476.1003167000017,None,right,0.5003493999829516,476.18360580003355,None,476.1003167000017,None,476.7009990000515,None,M,001,2022_Jan_22_1757,contrast,2021.2.3,60.03031529546424,
0.4,27,0,243,2,476.91625400003977,None,476.91625400003977,None,476.91625400003977,None,right,1.2683049999759533,476.99957250000443,None,476.91625400003977,None,478.299204000039,None,M,001,2022_Jan_22_1757,contrast,2021.2.3,60.03031529546424,
0.1,27,1,244,0,478.5152972000069,None,478.5152972000069,None,478.5152972000069,None,left,0.7418165999697521,478.5980868000188,None,478.5152972000069,None,479.36496600002283,None,M,001,2022_Jan_22_1757,contrast,2021.2.3,60.03031529546424,
0.3,27,2,245,1,479.5644025000511,None,479.5644025000511,None,479.5644025000511,None,right,2.5566744999960065,479.647242200037,None,479.5644025000511,None,482.2294765000115,None,M,001,2022_Jan_22_1757,contrast,2021.2.3,60.03031529546424,
0.5,27,3,246,4,482.4445863000001,None,482.4445863000001,None,482.4445863000001,None,right,0.6998883000342175,482.5280402000062,None,482.4445863000001,None,483.2452591000474,None,M,001,2022_Jan_22_1757,contrast,2021.2.3,60.03031529546424,
0.45,27,4,247,3,483.4606206000317,None,483.4606206000317,None,483.4606206000317,None,right,1.8127620999584906,483.5436924000387,None,483.4606206000317,None,485.37663270003395,None,M,001,2022_Jan_22_1757,contrast,2021.2.3,60.03031529546424,
0.9,27,5,248,8,485.5921995000099,None,485.5921995000099,None,485.5921995000099,None,right,0.41586290003033355,485.6761271000141,None,485.5921995000099,None,486.1091509000398,None,M,001,2022_Jan_22_1757,contrast,2021.2.3,60.03031529546424,
0.6,27,6,249,6,486.3248304000008,None,486.3248304000008,None,486.3248304000008,None,right,0.371826900052838,486.40799860004336,None,486.3248304000008,None,486.808205600013,None,M,001,2022_Jan_22_1757,contrast,2021.2.3,60.03031529546424,
0.55,27,7,250,5,487.00815100001637,None,487.00815100001637,None,487.00815100001637,None,right,0.48917870002333075,487.09068500000285,None,487.00815100001637,None,487.6076353000244,None,M,001,2022_Jan_22_1757,contrast,2021.2.3,60.03031529546424,
0.7,27,8,251,7,487.8234020000091,None,487.8234020000091,None,487.8234020000091,None,right,0.6987426999839954,487.90667190001113,None,487.8234020000091,None,488.62306460004766,None,M,001,2022_Jan_22_1757,contrast,2021.2.3,60.03031529546424,
0.6,28,0,252,6,488.8225766000105,None,488.8225766000105,None,488.8225766000105,None,right,0.4833105999859981,488.90568040002836,None,488.8225766000105,None,489.40696530003333,None,M,001,2022_Jan_22_1757,contrast,2021.2.3,60.03031529546424,
0.55,28,1,253,5,489.6218793000444,None,489.6218793000444,None,489.6218793000444,None,right,0.7859129999997094,489.7059249000158,None,489.6218793000444,None,490.52172900002915,None,M,001,2022_Jan_22_1757,contrast,2021.2.3,60.03031529546424,
0.3,28,2,254,1,490.72111080004834,None,490.72111080004834,None,490.72111080004834,None,left,0.6494832999887876,490.8042273000465,None,490.72111080004834,None,491.47167380002793,None,M,001,2022_Jan_22_1757,contrast,2021.2.3,60.03031529546424,
0.1,28,3,255,0,491.68689520005137,None,491.68689520005137,None,491.68689520005137,None,left,0.4664922999800183,491.76997920003487,None,491.68689520005137,None,492.25414260005346,None,M,001,2022_Jan_22_1757,contrast,2021.2.3,60.03031529546424,
0.4,28,4,256,2,492.46933280001394,None,492.46933280001394,None,492.46933280001394,None,right,2.7392298999475315,492.55293060000986,None,492.46933280001394,None,495.31755279999925,None,M,001,2022_Jan_22_1757,contrast,2021.2.3,60.03031529546424,
0.7,28,5,257,7,495.51732140005333,None,495.51732140005333,None,495.51732140005333,None,right,0.46146220003720373,495.59998700005235,None,495.51732140005333,None,496.08376720000524,None,M,001,2022_Jan_22_1757,contrast,2021.2.3,60.03031529546424,
0.9,28,6,258,8,496.2994674000074,None,496.2994674000074,None,496.2994674000074,None,right,0.30098600004566833,496.38293320004595,None,496.2994674000074,None,496.7002311000251,None,M,001,2022_Jan_22_1757,contrast,2021.2.3,60.03031529546424,
0.5,28,7,259,4,496.9154835000518,None,496.9154835000518,None,496.9154835000518,None,right,0.34144150000065565,496.99860400002217,None,496.9154835000518,None,497.3660307000391,None,M,001,2022_Jan_22_1757,contrast,2021.2.3,60.03031529546424,
0.45,28,8,260,3,497.58161170000676,None,497.58161170000676,None,497.58161170000676,None,right,0.570727700018324,497.665104100015,None,497.58161170000676,None,498.2646436000359,None,M,001,2022_Jan_22_1757,contrast,2021.2.3,60.03031529546424,
0.45,29,0,261,3,498.4642802000162,None,498.4642802000162,None,498.4642802000162,None,right,0.408415200014133,498.5474846000434,None,498.4642802000162,None,498.9811723000021,None,M,001,2022_Jan_22_1757,contrast,2021.2.3,60.03031529546424,
0.6,29,1,262,6,499.1968424000079,None,499.1968424000079,None,499.1968424000079,None,right,0.49182950000977144,499.28005560004385,None,499.1968424000079,None,499.7974685000372,None,M,001,2022_Jan_22_1757,contrast,2021.2.3,60.03031529546424,
0.3,29,2,263,1,500.01267080003163,None,500.01267080003163,None,500.01267080003163,None,right,1.515914099989459,500.09602019999875,None,500.01267080003163,None,501.62927330000093,None,M,001,2022_Jan_22_1757,contrast,2021.2.3,60.03031529546424,
0.55,29,3,264,5,501.8445529000019,None,501.8445529000019,None,501.8445529000019,None,right,0.5496250999858603,501.9276016000076,None,501.8445529000019,None,502.4945603000233,None,M,001,2022_Jan_22_1757,contrast,2021.2.3,60.03031529546424,
0.9,29,4,265,8,502.7103515000199,None,502.7103515000199,None,502.7103515000199,None,right,0.46701959997881204,502.79350500000874,None,502.7103515000199,None,503.27727900003083,None,M,001,2022_Jan_22_1757,contrast,2021.2.3,60.03031529546424,
0.4,29,5,266,2,503.4931274000555,None,503.4931274000555,None,503.4931274000555,None,right,0.3075566999614239,503.5764343000483,None,503.4931274000555,None,503.90992300002836,None,M,001,2022_Jan_22_1757,contrast,2021.2.3,60.03031529546424,
0.7,29,6,267,7,504.12577040004544,None,504.12577040004544,None,504.12577040004544,None,right,0.4905963000492193,504.2094268000219,None,504.12577040004544,None,504.7263221000321,None,M,001,2022_Jan_22_1757,contrast,2021.2.3,60.03031529546424,
0.1,29,7,268,0,504.9418600000208,None,504.9418600000208,None,504.9418600000208,None,left,1.1481793000129983,505.0248848000192,None,504.9418600000208,None,506.19191530003445,None,M,001,2022_Jan_22_1757,contrast,2021.2.3,60.03031529546424,
0.5,29,8,269,4,506.4075882000034,None,506.4075882000034,None,506.4075882000034,None,right,1.2822935999720357,506.49058280000463,None,506.4075882000034,None,507.79012700001476,None,M,001,2022_Jan_22_1757,contrast,2021.2.3,60.03031529546424,
