rgb_luminance,trials.thisRepN,trials.thisTrialN,trials.thisN,trials.thisIndex,patch_background.started,patch_background.stopped,patch_foreground.started,patch_foreground.stopped,patch_test.started,patch_test.stopped,key_response.keys,key_response.rt,key_response.started,key_response.stopped,text_task.started,text_task.stopped,text.started,text.stopped,participant,session,date,expName,psychopyVersion,frameRate,
0.9,0,0,0,8,34.983024600020144,None,34.983024600020144,None,34.983024600020144,None,right,1.9255861999699846,35.069711500022095,None,34.983024600020144,None,37.02380860003177,None,m_rgb,001,2022_Jan_22_1823,contrast,2021.2.3,60.03071172233945,
0.45,0,1,1,3,37.23462560004555,None,37.23462560004555,None,37.23462560004555,None,right,2.156637000036426,37.31758740002988,None,37.23462560004555,None,39.50420160003705,None,m_rgb,001,2022_Jan_22_1823,contrast,2021.2.3,60.03071172233945,
0.5,0,2,2,4,39.71588450000854,None,39.71588450000854,None,39.71588450000854,None,right,0.9867550999624655,39.79887920001056,None,39.71588450000854,None,40.81482980004512,None,m_rgb,001,2022_Jan_22_1823,contrast,2021.2.3,60.03071172233945,
0.3,0,3,3,1,41.0158426000271,None,41.0158426000271,None,41.0158426000271,None,left,0.9350588999805041,41.09858280001208,None,41.0158426000271,None,42.06376380001893,None,m_rgb,001,2022_Jan_22_1823,contrast,2021.2.3,60.03071172233945,
0.55,0,4,4,5,42.264343600021675,None,42.264343600021675,None,42.264343600021675,None,right,0.5346395000233315,42.34680550004123,None,42.264343600021675,None,42.89897130004829,None,m_rgb,001,2022_Jan_22_1823,contrast,2021.2.3,60.03071172233945,
0.6,0,5,5,6,43.11361630004831,None,43.11361630004831,None,43.11361630004831,None,right,0.805517700035125,43.19598489999771,None,43.11361630004831,None,44.03098100004718,None,m_rgb,001,2022_Jan_22_1823,contrast,2021.2.3,60.03071172233945,
0.4,0,6,6,2,44.24529710004572,None,44.24529710004572,None,44.24529710004572,None,right,5.832585100026336,44.328865400049835,None,44.24529710004572,None,50.19189820002066,None,m_rgb,001,2022_Jan_22_1823,contrast,2021.2.3,60.03071172233945,
0.7,0,7,7,7,50.40654350002296,None,50.40654350002296,None,50.40654350002296,None,right,0.4393119000014849,50.49004380003316,None,50.40654350002296,None,50.95790300000226,None,m_rgb,001,2022_Jan_22_1823,contrast,2021.2.3,60.03071172233945,
0.1,0,8,8,0,51.172599900048226,None,51.172599900048226,None,51.172599900048226,None,left,0.48974620003718883,51.25573319999967,None,51.172599900048226,None,51.77388960000826,None,m_rgb,001,2022_Jan_22_1823,contrast,2021.2.3,60.03071172233945,
0.55,1,0,9,5,51.98821430001408,None,51.98821430001408,None,51.98821430001408,None,right,0.44415319996187463,52.071469000016805,None,51.98821430001408,None,52.53992420004215,None,m_rgb,001,2022_Jan_22_1823,contrast,2021.2.3,60.03071172233945,
0.4,1,1,10,2,52.75439030001871,None,52.75439030001871,None,52.75439030001871,None,right,5.1000690999790095,52.837494100036565,None,52.75439030001871,None,57.96911380003439,None,m_rgb,001,2022_Jan_22_1823,contrast,2021.2.3,60.03071172233945,
0.1,1,2,11,0,58.18320960004348,None,58.18320960004348,None,58.18320960004348,None,left,1.0798309000092559,58.266154400014784,None,58.18320960004348,None,59.367478400003165,None,m_rgb,001,2022_Jan_22_1823,contrast,2021.2.3,60.03071172233945,
0.7,1,3,12,7,59.58208390005166,None,59.58208390005166,None,59.58208390005166,None,right,0.656377799983602,59.66513330000453,None,59.58208390005166,None,60.349953300028574,None,m_rgb,001,2022_Jan_22_1823,contrast,2021.2.3,60.03071172233945,
0.45,1,4,13,3,60.56452130002435,None,60.56452130002435,None,60.56452130002435,None,right,2.0119687999831513,60.64725560002262,None,60.56452130002435,None,62.681383200048,None,m_rgb,001,2022_Jan_22_1823,contrast,2021.2.3,60.03071172233945,
0.9,1,5,14,8,62.8956839000457,None,62.8956839000457,None,62.8956839000457,None,right,0.6226762000005692,62.97886220004875,None,62.8956839000457,None,63.63036380003905,None,m_rgb,001,2022_Jan_22_1823,contrast,2021.2.3,60.03071172233945,
0.5,1,6,15,4,63.84490710002137,None,63.84490710002137,None,63.84490710002137,None,right,2.2493066000170074,63.92800220003119,None,63.84490710002137,None,66.19525220000651,None,m_rgb,001,2022_Jan_22_1823,contrast,2021.2.3,60.03071172233945,
0.3,1,7,16,1,66.40948970004683,None,66.40948970004683,None,66.40948970004683,None,left,1.6048999999766238,66.49257480003871,None,66.40948970004683,None,68.12621140002739,None,m_rgb,001,2022_Jan_22_1823,contrast,2021.2.3,60.03071172233945,
0.6,1,8,17,6,68.34065110003576,None,68.34065110003576,None,68.34065110003576,None,right,0.5852316000382416,68.42422149999766,None,68.34065110003576,None,69.04196170001524,None,m_rgb,001,2022_Jan_22_1823,contrast,2021.2.3,60.03071172233945,
0.9,2,0,18,8,69.25647780002328,None,69.25647780002328,None,69.25647780002328,None,right,1.2698286999948323,69.33984000002965,None,69.25647780002328,None,70.64228290005121,None,m_rgb,001,2022_Jan_22_1823,contrast,2021.2.3,60.03071172233945,
0.1,2,1,19,0,70.85543350002263,None,70.85543350002263,None,70.85543350002263,None,left,0.9510700000100769,70.9384710000013,None,70.85543350002263,None,71.90651930001331,None,m_rgb,001,2022_Jan_22_1823,contrast,2021.2.3,60.03071172233945,
0.5,2,2,20,4,72.12092910002684,None,72.12092910002684,None,72.12092910002684,None,right,0.597973300027661,72.20420740003465,None,72.12092910002684,None,72.82274230004987,None,m_rgb,001,2022_Jan_22_1823,contrast,2021.2.3,60.03071172233945,
0.3,2,3,21,1,73.03690510004526,None,73.03690510004526,None,73.03690510004526,None,left,2.401733400009107,73.11997880000854,None,73.03690510004526,None,75.55345040000975,None,m_rgb,001,2022_Jan_22_1823,contrast,2021.2.3,60.03071172233945,
0.55,2,4,22,5,75.76787900005002,None,75.76787900005002,None,75.76787900005002,None,right,0.43617160001304,75.85325030004606,None,75.76787900005002,None,76.33379600004992,None,m_rgb,001,2022_Jan_22_1823,contrast,2021.2.3,60.03071172233945,
0.45,2,5,23,3,76.53413400001591,None,76.53413400001591,None,76.53413400001591,None,right,1.2101890000049025,76.61703680001665,None,76.53413400001591,None,77.85144490003586,None,m_rgb,001,2022_Jan_22_1823,contrast,2021.2.3,60.03071172233945,
0.6,2,6,24,6,78.0657227000338,None,78.0657227000338,None,78.0657227000338,None,right,0.4950368999852799,78.1487392000272,None,78.0657227000338,None,78.66749050002545,None,m_rgb,001,2022_Jan_22_1823,contrast,2021.2.3,60.03071172233945,
0.4,2,7,25,2,78.88170480000554,None,78.88170480000554,None,78.88170480000554,None,right,1.1169358999468386,78.96495720004896,None,78.88170480000554,None,80.09960040001897,None,m_rgb,001,2022_Jan_22_1823,contrast,2021.2.3,60.03071172233945,
0.7,2,8,26,7,80.31388100003824,None,80.31388100003824,None,80.31388100003824,None,right,0.5178110999986529,80.39682600001106,None,80.31388100003824,None,80.93357789999573,None,m_rgb,001,2022_Jan_22_1823,contrast,2021.2.3,60.03071172233945,
0.5,3,0,27,4,81.14672260003863,None,81.14672260003863,None,81.14672260003863,None,right,1.413530300022103,81.22952760005137,None,81.14672260003863,None,82.66421469999477,None,m_rgb,001,2022_Jan_22_1823,contrast,2021.2.3,60.03071172233945,
0.9,3,1,28,8,82.87833050003974,None,82.87833050003974,None,82.87833050003974,None,right,0.48088709998410195,82.96131540002534,None,82.87833050003974,None,83.46578170004068,None,m_rgb,001,2022_Jan_22_1823,contrast,2021.2.3,60.03071172233945,
0.7,3,2,29,7,83.67803850001656,None,83.67803850001656,None,83.67803850001656,None,right,0.9134466000250541,83.76085780002177,None,83.67803850001656,None,84.69566110003507,None,m_rgb,001,2022_Jan_22_1823,contrast,2021.2.3,60.03071172233945,
0.45,3,3,30,3,84.90981959999772,None,84.90981959999772,None,84.90981959999772,None,right,2.4816264000255615,84.9927197000361,None,84.90981959999772,None,87.49299490003614,None,m_rgb,001,2022_Jan_22_1823,contrast,2021.2.3,60.03071172233945,
0.6,3,4,31,6,87.7071932000108,None,87.7071932000108,None,87.7071932000108,None,right,0.4350255000172183,87.79054550000001,None,87.7071932000108,None,88.24231770000188,None,m_rgb,001,2022_Jan_22_1823,contrast,2021.2.3,60.03071172233945,
0.1,3,5,32,0,88.4572750000516,None,88.4572750000516,None,88.4572750000516,None,left,0.5985757000162266,88.53973300004145,None,88.4572750000516,None,89.15822040004423,None,m_rgb,001,2022_Jan_22_1823,contrast,2021.2.3,60.03071172233945,
0.55,3,6,33,5,89.37257440004032,None,89.37257440004032,None,89.37257440004032,None,right,3.330707099987194,89.45564480003668,None,89.37257440004032,None,92.8050465999986,None,m_rgb,001,2022_Jan_22_1823,contrast,2021.2.3,60.03071172233945,
0.4,3,7,34,2,93.019426200015,None,93.019426200015,None,93.019426200015,None,right,2.4669632999575697,93.10262880002847,None,93.019426200015,None,95.60234780004248,None,m_rgb,001,2022_Jan_22_1823,contrast,2021.2.3,60.03071172233945,
0.3,3,8,35,1,95.81702420004876,None,95.81702420004876,None,95.81702420004876,None,left,0.6136096999980509,95.89995120000094,None,95.81702420004876,None,96.55134620005265,None,m_rgb,001,2022_Jan_22_1823,contrast,2021.2.3,60.03071172233945,
0.45,4,0,36,3,96.76624930003891,None,96.76624930003891,None,96.76624930003891,None,right,0.6880321000353433,96.8493679999956,None,96.76624930003891,None,97.5678351999959,None,m_rgb,001,2022_Jan_22_1823,contrast,2021.2.3,60.03071172233945,
0.7,4,1,37,7,97.78198580001481,None,97.78198580001481,None,97.78198580001481,None,right,0.6176445999881253,97.86480219999794,None,97.78198580001481,None,98.50041380000766,None,m_rgb,001,2022_Jan_22_1823,contrast,2021.2.3,60.03071172233945,
0.3,4,2,38,1,98.71445270004915,None,98.71445270004915,None,98.71445270004915,None,left,1.571961600042414,98.79740010004025,None,98.71445270004915,None,100.398571000027,None,m_rgb,001,2022_Jan_22_1823,contrast,2021.2.3,60.03071172233945,
0.5,4,3,39,4,100.61289830005262,None,100.61289830005262,None,100.61289830005262,None,right,0.5536998999887146,100.69582730002003,None,100.61289830005262,None,101.28076650004368,None,m_rgb,001,2022_Jan_22_1823,contrast,2021.2.3,60.03071172233945,
0.1,4,4,40,0,101.49576430005254,None,101.49576430005254,None,101.49576430005254,None,left,0.8380809999653138,101.57931340002688,None,101.49576430005254,None,102.44490990001941,None,m_rgb,001,2022_Jan_22_1823,contrast,2021.2.3,60.03071172233945,
0.9,4,5,41,8,102.64642560004722,None,102.64642560004722,None,102.64642560004722,None,right,0.6344800000078976,102.72807020001346,None,102.64642560004722,None,103.38364320003893,None,m_rgb,001,2022_Jan_22_1823,contrast,2021.2.3,60.03071172233945,
0.6,4,6,42,6,103.59382740000729,None,103.59382740000729,None,103.59382740000729,None,right,2.9981589000090025,103.67699350003386,None,103.59382740000729,None,106.69777820003219,None,m_rgb,001,2022_Jan_22_1823,contrast,2021.2.3,60.03071172233945,
0.4,4,7,43,2,106.90937270002905,None,106.90937270002905,None,106.90937270002905,None,left,1.9236661999602802,106.99014380003791,None,106.90937270002905,None,108.94084749999456,None,m_rgb,001,2022_Jan_22_1823,contrast,2021.2.3,60.03071172233945,
0.55,4,8,44,5,109.15496590000112,None,109.15496590000112,None,109.15496590000112,None,right,0.5707298000343144,109.23866360000102,None,109.15496590000112,None,109.83962530002464,None,m_rgb,001,2022_Jan_22_1823,contrast,2021.2.3,60.03071172233945,
0.5,5,0,45,4,110.05440300004557,None,110.05440300004557,None,110.05440300004557,None,right,0.5678585999994539,110.1375855000224,None,110.05440300004557,None,110.72263000003295,None,m_rgb,001,2022_Jan_22_1823,contrast,2021.2.3,60.03071172233945,
0.55,5,1,46,5,110.93698350002524,None,110.93698350002524,None,110.93698350002524,None,right,2.021111300040502,111.02033190004295,None,110.93698350002524,None,113.07208940002602,None,m_rgb,001,2022_Jan_22_1823,contrast,2021.2.3,60.03071172233945,
0.1,5,2,47,0,113.28492629999528,None,113.28492629999528,None,113.28492629999528,None,left,0.5694247999927029,113.36805260000983,None,113.28492629999528,None,113.96947350003757,None,m_rgb,001,2022_Jan_22_1823,contrast,2021.2.3,60.03071172233945,
0.3,5,3,48,1,114.18414930003928,None,114.18414930003928,None,114.18414930003928,None,left,0.8862647999776527,114.26728540001204,None,114.18414930003928,None,115.18312670005253,None,m_rgb,001,2022_Jan_22_1823,contrast,2021.2.3,60.03071172233945,
0.7,5,4,49,7,115.38300600001821,None,115.38300600001821,None,115.38300600001821,None,right,0.3613257000106387,115.46642770001199,None,115.38300600001821,None,115.8515316999983,None,m_rgb,001,2022_Jan_22_1823,contrast,2021.2.3,60.03071172233945,
0.45,5,5,50,3,116.06573880003998,None,116.06573880003998,None,116.06573880003998,None,right,1.2605082000372931,116.14894710003864,None,116.06573880003998,None,117.43121410004096,None,m_rgb,001,2022_Jan_22_1823,contrast,2021.2.3,60.03071172233945,
0.9,5,6,51,8,117.63240080000833,None,117.63240080000833,None,117.63240080000833,None,right,0.44689779996406287,117.71459490002599,None,117.63240080000833,None,118.19905730005121,None,m_rgb,001,2022_Jan_22_1823,contrast,2021.2.3,60.03071172233945,
0.6,5,7,52,6,118.4138276000158,None,118.4138276000158,None,118.4138276000158,None,right,0.6563474999857135,118.49713040003553,None,118.4138276000158,None,119.18194350000704,None,m_rgb,001,2022_Jan_22_1823,contrast,2021.2.3,60.03071172233945,
0.4,5,8,53,2,119.39605660003144,None,119.39605660003144,None,119.39605660003144,None,left,1.5787763999542221,119.47947270004079,None,119.39605660003144,None,121.08018829999492,None,m_rgb,001,2022_Jan_22_1823,contrast,2021.2.3,60.03071172233945,
0.4,6,0,54,2,121.29451120004524,None,121.29451120004524,None,121.29451120004524,None,left,2.577702099981252,121.37785829999484,None,121.29451120004524,None,123.97759510000469,None,m_rgb,001,2022_Jan_22_1823,contrast,2021.2.3,60.03071172233945,
0.6,6,1,55,6,124.19193060003454,None,124.19193060003454,None,124.19193060003454,None,right,0.4795410999795422,124.2753839000361,None,124.19193060003454,None,124.77695000002859,None,m_rgb,001,2022_Jan_22_1823,contrast,2021.2.3,60.03071172233945,
0.45,6,2,56,3,124.9914341000258,None,124.9914341000258,None,124.9914341000258,None,right,0.7187749999575317,125.07465650001541,None,124.9914341000258,None,125.82584960001986,None,m_rgb,001,2022_Jan_22_1823,contrast,2021.2.3,60.03071172233945,
0.3,6,3,57,1,126.04041499999585,None,126.04041499999585,None,126.04041499999585,None,right,6.3747641000081785,126.12362640001811,None,126.04041499999585,None,132.520773700031,None,m_rgb,001,2022_Jan_22_1823,contrast,2021.2.3,60.03071172233945,
0.9,6,4,58,8,132.73506600002293,None,132.73506600002293,None,132.73506600002293,None,right,0.5608116000075825,132.81799790001241,None,132.73506600002293,None,133.406027500052,None,m_rgb,001,2022_Jan_22_1823,contrast,2021.2.3,60.03071172233945,
0.5,6,5,59,4,133.61730510002235,None,133.61730510002235,None,133.61730510002235,None,right,0.7980248999665491,133.700390300015,None,133.61730510002235,None,134.5202024000464,None,m_rgb,001,2022_Jan_22_1823,contrast,2021.2.3,60.03071172233945,
0.7,6,6,60,7,134.7329639000236,None,134.7329639000236,None,134.7329639000236,None,right,1.1052142000407912,134.81621370004723,None,134.7329639000236,None,135.9508235999965,None,m_rgb,001,2022_Jan_22_1823,contrast,2021.2.3,60.03071172233945,
0.55,6,7,61,5,136.16517570003634,None,136.16517570003634,None,136.16517570003634,None,right,1.1948290999862365,136.24815670005046,None,136.16517570003634,None,137.46613910002634,None,m_rgb,001,2022_Jan_22_1823,contrast,2021.2.3,60.03071172233945,
0.1,6,8,62,0,137.6805025000358,None,137.6805025000358,None,137.6805025000358,None,left,0.653866900014691,137.7635337000247,None,137.6805025000358,None,138.43614950001938,None,m_rgb,001,2022_Jan_22_1823,contrast,2021.2.3,60.03071172233945,
0.7,7,0,63,7,138.64632030000212,None,138.64632030000212,None,138.64632030000212,None,right,0.5840381999732926,138.72945670003537,None,138.64632030000212,None,139.33115660003386,None,m_rgb,001,2022_Jan_22_1823,contrast,2021.2.3,60.03071172233945,
0.6,7,1,64,6,139.54560690000653,None,139.54560690000653,None,139.54560690000653,None,right,1.9430105999927036,139.62861970002996,None,139.54560690000653,None,141.59612490003929,None,m_rgb,001,2022_Jan_22_1823,contrast,2021.2.3,60.03071172233945,
0.9,7,2,65,8,141.81012820004253,None,141.81012820004253,None,141.81012820004253,None,right,0.6522389000165276,141.8933820000384,None,141.81012820004253,None,142.58118969999487,None,m_rgb,001,2022_Jan_22_1823,contrast,2021.2.3,60.03071172233945,
0.5,7,3,66,4,142.79276870004833,None,142.79276870004833,None,142.79276870004833,None,right,1.3335874999756925,142.87571860000025,None,142.79276870004833,None,144.22670590004418,None,m_rgb,001,2022_Jan_22_1823,contrast,2021.2.3,60.03071172233945,
0.55,7,4,67,5,144.4410580000258,None,144.4410580000258,None,144.4410580000258,None,right,0.5173311000107788,144.52437370002735,None,144.4410580000258,None,145.05921930004843,None,m_rgb,001,2022_Jan_22_1823,contrast,2021.2.3,60.03071172233945,
0.45,7,5,68,3,145.27370310004335,None,145.27370310004335,None,145.27370310004335,None,right,1.4298614999861456,145.35688820003998,None,145.27370310004335,None,146.80758720001904,None,m_rgb,001,2022_Jan_22_1823,contrast,2021.2.3,60.03071172233945,
0.4,7,6,69,2,147.02212610002607,None,147.02212610002607,None,147.02212610002607,None,left,2.1126969000324607,147.10544620000292,None,147.02212610002607,None,149.23907410004176,None,m_rgb,001,2022_Jan_22_1823,contrast,2021.2.3,60.03071172233945,
0.3,7,7,70,1,149.4538606000133,None,149.4538606000133,None,149.4538606000133,None,left,1.5208789000171237,149.5365104000084,None,149.4538606000133,None,151.08703769999556,None,m_rgb,001,2022_Jan_22_1823,contrast,2021.2.3,60.03071172233945,
0.1,7,8,71,0,151.30165930005023,None,151.30165930005023,None,151.30165930005023,None,left,0.5203914000303484,151.38505340000847,None,151.30165930005023,None,151.93641300004674,None,m_rgb,001,2022_Jan_22_1823,contrast,2021.2.3,60.03071172233945,
0.45,8,0,72,3,152.15130610001506,None,152.15130610001506,None,152.15130610001506,None,right,0.7924121000105515,152.23442280001473,None,152.15130610001506,None,153.05267300002743,None,m_rgb,001,2022_Jan_22_1823,contrast,2021.2.3,60.03071172233945,
0.4,8,1,73,2,153.26709470001515,None,153.26709470001515,None,153.26709470001515,None,right,1.1472178000258282,153.35019240004476,None,153.26709470001515,None,154.53409490000922,None,m_rgb,001,2022_Jan_22_1823,contrast,2021.2.3,60.03071172233945,
0.5,8,2,74,4,154.74901770002907,None,154.74901770002907,None,154.74901770002907,None,right,2.195253700017929,154.83189580001635,None,154.74901770002907,None,157.04909570002928,None,m_rgb,001,2022_Jan_22_1823,contrast,2021.2.3,60.03071172233945,
0.7,8,3,75,7,157.2636967000435,None,157.2636967000435,None,157.2636967000435,None,right,0.512262300006114,157.34641200001352,None,157.2636967000435,None,157.8819150000345,None,m_rgb,001,2022_Jan_22_1823,contrast,2021.2.3,60.03071172233945,
0.6,8,4,76,6,158.09591120004188,None,158.09591120004188,None,158.09591120004188,None,right,0.6062064999714494,158.17913250002312,None,158.09591120004188,None,158.81667850003578,None,m_rgb,001,2022_Jan_22_1823,contrast,2021.2.3,60.03071172233945,
0.55,8,5,77,5,159.02860690001398,None,159.02860690001398,None,159.02860690001398,None,right,1.1631148000014946,159.11172780004563,None,159.02860690001398,None,160.29618689999916,None,m_rgb,001,2022_Jan_22_1823,contrast,2021.2.3,60.03071172233945,
0.1,8,6,78,0,160.5107007000479,None,160.5107007000479,None,160.5107007000479,None,left,0.5454081000061706,160.59360790002393,None,160.5107007000479,None,161.16232080000918,None,m_rgb,001,2022_Jan_22_1823,contrast,2021.2.3,60.03071172233945,
0.3,8,7,79,1,161.37653290003072,None,161.37653290003072,None,161.37653290003072,None,left,5.245941100001801,161.45966320001753,None,161.37653290003072,None,166.7236583000049,None,m_rgb,001,2022_Jan_22_1823,contrast,2021.2.3,60.03071172233945,
0.9,8,8,80,8,166.93823820003308,None,166.93823820003308,None,166.93823820003308,None,right,0.7097976999939419,167.02126280002994,None,166.93823820003308,None,167.75402819999726,None,m_rgb,001,2022_Jan_22_1823,contrast,2021.2.3,60.03071172233945,
0.55,9,0,81,5,167.95445420005126,None,167.95445420005126,None,167.95445420005126,None,right,1.884432899998501,168.03718800004572,None,167.95445420005126,None,169.93785020004725,None,m_rgb,001,2022_Jan_22_1823,contrast,2021.2.3,60.03071172233945,
0.7,9,1,82,7,170.15230720001273,None,170.15230720001273,None,170.15230720001273,None,right,0.7920354999951087,170.2352860000101,None,170.15230720001273,None,171.05343780003022,None,m_rgb,001,2022_Jan_22_1823,contrast,2021.2.3,60.03071172233945,
0.5,9,2,83,4,171.26787150005111,None,171.26787150005111,None,171.26787150005111,None,right,3.5641529000131413,171.3508218000061,None,171.26787150005111,None,174.93375300004845,None,m_rgb,001,2022_Jan_22_1823,contrast,2021.2.3,60.03071172233945,
0.3,9,3,84,1,175.1476787000429,None,175.1476787000429,None,175.1476787000429,None,left,0.5805160999880172,175.23077130003367,None,175.1476787000429,None,175.83261280000443,None,m_rgb,001,2022_Jan_22_1823,contrast,2021.2.3,60.03071172233945,
0.45,9,4,85,3,176.04706450004596,None,176.04706450004596,None,176.04706450004596,None,right,1.2492443999508396,176.13017020002007,None,176.04706450004596,None,177.3977765000309,None,m_rgb,001,2022_Jan_22_1823,contrast,2021.2.3,60.03071172233945,
0.4,9,5,86,2,177.61208720004652,None,177.61208720004652,None,177.61208720004652,None,left,0.7861429000040516,177.69554480002262,None,177.61208720004652,None,178.5116435000091,None,m_rgb,001,2022_Jan_22_1823,contrast,2021.2.3,60.03071172233945,
0.6,9,6,87,6,178.7123095000279,None,178.7123095000279,None,178.7123095000279,None,right,0.535141299944371,178.79431820003083,None,178.7123095000279,None,179.36283280001953,None,m_rgb,001,2022_Jan_22_1823,contrast,2021.2.3,60.03071172233945,
0.9,9,7,88,8,179.57733690005261,None,179.57733690005261,None,179.57733690005261,None,right,0.45286260003922507,179.66056849999586,None,179.57733690005261,None,180.14512780000223,None,m_rgb,001,2022_Jan_22_1823,contrast,2021.2.3,60.03071172233945,
0.1,9,8,89,0,180.35993830004008,None,180.35993830004008,None,180.35993830004008,None,left,0.5025746000465006,180.44296310003847,None,180.35993830004008,None,180.97787470003823,None,m_rgb,001,2022_Jan_22_1823,contrast,2021.2.3,60.03071172233945,
0.55,10,0,90,5,181.192442700034,None,181.192442700034,None,181.192442700034,None,right,0.7282166000222787,181.27547710004728,None,181.192442700034,None,182.02729090000503,None,m_rgb,001,2022_Jan_22_1823,contrast,2021.2.3,60.03071172233945,
0.1,10,1,91,0,182.2413829000434,None,182.2413829000434,None,182.2413829000434,None,left,1.0689055999973789,182.3246516000363,None,182.2413829000434,None,183.42351570003666,None,m_rgb,001,2022_Jan_22_1823,contrast,2021.2.3,60.03071172233945,
0.3,10,2,92,1,183.62363540002843,None,183.62363540002843,None,183.62363540002843,None,left,1.750615100027062,183.7067857000511,None,183.62363540002843,None,185.47424100001808,None,m_rgb,001,2022_Jan_22_1823,contrast,2021.2.3,60.03071172233945,
0.5,10,3,93,4,185.68856820004294,None,185.68856820004294,None,185.68856820004294,None,right,0.7591238999739289,185.77177530003246,None,185.68856820004294,None,186.5566329000285,None,m_rgb,001,2022_Jan_22_1823,contrast,2021.2.3,60.03071172233945,
0.7,10,4,94,7,186.77072300005239,None,186.77072300005239,None,186.77072300005239,None,right,0.5233799999696203,186.85401589999674,None,186.77072300005239,None,187.4057667000452,None,m_rgb,001,2022_Jan_22_1823,contrast,2021.2.3,60.03071172233945,
0.9,10,5,95,8,187.6201960000326,None,187.6201960000326,None,187.6201960000326,None,right,0.5703080999664962,187.70320620003622,None,187.6201960000326,None,188.30584700003965,None,m_rgb,001,2022_Jan_22_1823,contrast,2021.2.3,60.03071172233945,
0.6,10,6,96,6,188.52057799999602,None,188.52057799999602,None,188.52057799999602,None,right,0.8227680000127293,188.60275820002425,None,188.52057799999602,None,189.45460290001938,None,m_rgb,001,2022_Jan_22_1823,contrast,2021.2.3,60.03071172233945,
0.4,10,7,97,2,189.66839750000509,None,189.66839750000509,None,189.66839750000509,None,left,1.530942099983804,189.75154790002853,None,189.66839750000509,None,191.3022216000245,None,m_rgb,001,2022_Jan_22_1823,contrast,2021.2.3,60.03071172233945,
0.45,10,8,98,3,191.51676490000682,None,191.51676490000682,None,191.51676490000682,None,right,0.9295852000359446,191.59992540004896,None,191.51676490000682,None,192.5512995000463,None,m_rgb,001,2022_Jan_22_1823,contrast,2021.2.3,60.03071172233945,
0.5,11,0,99,4,192.7655184000032,None,192.7655184000032,None,192.7655184000032,None,right,0.4485883999732323,192.8489804000128,None,192.7655184000032,None,193.33170020004036,None,m_rgb,001,2022_Jan_22_1823,contrast,2021.2.3,60.03071172233945,
0.3,11,1,100,1,193.53261980001116,None,193.53261980001116,None,193.53261980001116,None,left,0.6120749000110663,193.61481620004633,None,193.53261980001116,None,194.2496321000508,None,m_rgb,001,2022_Jan_22_1823,contrast,2021.2.3,60.03071172233945,
0.9,11,2,101,8,194.4645884000347,None,194.4645884000347,None,194.4645884000347,None,right,0.4796120999963023,194.54745710000861,None,194.4645884000347,None,195.04925520002143,None,m_rgb,001,2022_Jan_22_1823,contrast,2021.2.3,60.03071172233945,
0.7,11,3,102,7,195.26374190003844,None,195.26374190003844,None,195.26374190003844,None,right,1.3764277000445873,195.34677410003496,None,195.26374190003844,None,196.74743560003117,None,m_rgb,001,2022_Jan_22_1823,contrast,2021.2.3,60.03071172233945,
0.55,11,4,103,5,196.96192810003413,None,196.96192810003413,None,196.96192810003413,None,right,1.0042406999855302,197.0451871000114,None,196.96192810003413,None,198.0795188000193,None,m_rgb,001,2022_Jan_22_1823,contrast,2021.2.3,60.03071172233945,
0.45,11,5,104,3,198.29404440004146,None,198.29404440004146,None,198.29404440004146,None,right,1.6413718999829143,198.37744950002525,None,198.29404440004146,None,200.04510460002348,None,m_rgb,001,2022_Jan_22_1823,contrast,2021.2.3,60.03071172233945,
0.4,11,6,105,2,200.25964900001418,None,200.25964900001418,None,200.25964900001418,None,left,1.3709744000225328,200.34239880001405,None,200.25964900001418,None,201.74296510004206,None,m_rgb,001,2022_Jan_22_1823,contrast,2021.2.3,60.03071172233945,
0.1,11,7,106,0,201.95785440003965,None,201.95785440003965,None,201.95785440003965,None,left,0.6175325999502093,202.0407489000354,None,201.95785440003965,None,202.67598840000574,None,m_rgb,001,2022_Jan_22_1823,contrast,2021.2.3,60.03071172233945,
0.6,11,8,107,6,202.89038820000133,None,202.89038820000133,None,202.89038820000133,None,right,0.4519670999725349,202.97345640003914,None,202.89038820000133,None,203.44155750004575,None,m_rgb,001,2022_Jan_22_1823,contrast,2021.2.3,60.03071172233945,
0.9,12,0,108,8,203.65604580001673,None,203.65604580001673,None,203.65604580001673,None,right,0.47015720000490546,203.7393296000082,None,203.65604580001673,None,204.24093990004621,None,m_rgb,001,2022_Jan_22_1823,contrast,2021.2.3,60.03071172233945,
0.55,12,1,109,5,204.45598700002301,None,204.45598700002301,None,204.45598700002301,None,right,0.45485840004403144,204.5386462000315,None,204.45598700002301,None,205.02384950005217,None,m_rgb,001,2022_Jan_22_1823,contrast,2021.2.3,60.03071172233945,
0.1,12,2,110,0,205.23843580001267,None,205.23843580001267,None,205.23843580001267,None,left,0.4244738999987021,205.32150010002078,None,205.23843580001267,None,205.77312560001155,None,m_rgb,001,2022_Jan_22_1823,contrast,2021.2.3,60.03071172233945,
0.7,12,3,111,7,205.98730130004697,None,205.98730130004697,None,205.98730130004697,None,right,0.41099259996553883,206.07064800005173,None,205.98730130004697,None,206.5035080999951,None,m_rgb,001,2022_Jan_22_1823,contrast,2021.2.3,60.03071172233945,
0.4,12,4,112,2,206.70434890000615,None,206.70434890000615,None,206.70434890000615,None,right,1.2170046999817714,206.78656360000605,None,206.70434890000615,None,208.02091820002533,None,m_rgb,001,2022_Jan_22_1823,contrast,2021.2.3,60.03071172233945,
0.6,12,5,113,6,208.23533580004005,None,208.23533580004005,None,208.23533580004005,None,right,0.4676550999865867,208.31853280001087,None,208.23533580004005,None,208.80398860003334,None,m_rgb,001,2022_Jan_22_1823,contrast,2021.2.3,60.03071172233945,
0.5,12,6,114,4,209.0180961000151,None,209.0180961000151,None,209.0180961000151,None,right,1.0126747000031173,209.10131810000166,None,209.0180961000151,None,210.1361938000191,None,m_rgb,001,2022_Jan_22_1823,contrast,2021.2.3,60.03071172233945,
0.3,12,7,115,1,210.35044800001197,None,210.35044800001197,None,210.35044800001197,None,left,1.2804422000190243,210.4335738000227,None,210.35044800001197,None,211.73457660002168,None,m_rgb,001,2022_Jan_22_1823,contrast,2021.2.3,60.03071172233945,
0.45,12,8,116,3,211.94895270001143,None,211.94895270001143,None,211.94895270001143,None,right,0.513465499971062,212.03209350001998,None,211.94895270001143,None,212.58153690001927,None,m_rgb,001,2022_Jan_22_1823,contrast,2021.2.3,60.03071172233945,
0.1,13,0,117,0,212.78146359999664,None,212.78146359999664,None,212.78146359999664,None,left,0.5462721000076272,212.86478980001993,None,212.78146359999664,None,213.43309060001047,None,m_rgb,001,2022_Jan_22_1823,contrast,2021.2.3,60.03071172233945,
0.5,13,1,118,4,213.64742450002814,None,213.64742450002814,None,213.64742450002814,None,right,0.5283334000268951,213.73056880000513,None,213.64742450002814,None,214.28210680000484,None,m_rgb,001,2022_Jan_22_1823,contrast,2021.2.3,60.03071172233945,
0.45,13,2,119,3,214.49685500003397,None,214.49685500003397,None,214.49685500003397,None,right,0.5273635999765247,214.57978200004436,None,214.49685500003397,None,215.12937490001787,None,m_rgb,001,2022_Jan_22_1823,contrast,2021.2.3,60.03071172233945,
0.3,13,3,120,1,215.32958430005237,None,215.32958430005237,None,215.32958430005237,None,right,1.2288733999594115,215.41253740002867,None,215.32958430005237,None,216.67953120003222,None,m_rgb,001,2022_Jan_22_1823,contrast,2021.2.3,60.03071172233945,
0.4,13,4,121,2,216.8945036000223,None,216.8945036000223,None,216.8945036000223,None,right,0.4642782000009902,216.97770390001824,None,216.8945036000223,None,217.46291760000167,None,m_rgb,001,2022_Jan_22_1823,contrast,2021.2.3,60.03071172233945,
0.6,13,5,122,6,217.67719870002475,None,217.67719870002475,None,217.67719870002475,None,right,0.4496365999802947,217.7607131000259,None,217.67719870002475,None,218.23186890000943,None,m_rgb,001,2022_Jan_22_1823,contrast,2021.2.3,60.03071172233945,
0.9,13,6,123,8,218.44537920004223,None,218.44537920004223,None,218.44537920004223,None,right,0.43343380000442266,218.52798870002152,None,218.44537920004223,None,218.97822420002194,None,m_rgb,001,2022_Jan_22_1823,contrast,2021.2.3,60.03071172233945,
0.7,13,7,124,7,219.19257430004654,None,219.19257430004654,None,219.19257430004654,None,right,0.3271218999871053,219.27588050003396,None,219.19257430004654,None,219.62558510003146,None,m_rgb,001,2022_Jan_22_1823,contrast,2021.2.3,60.03071172233945,
0.55,13,8,125,5,219.82592240005033,None,219.82592240005033,None,219.82592240005033,None,right,0.6209692999836989,219.90849220001837,None,219.82592240005033,None,220.5599192000227,None,m_rgb,001,2022_Jan_22_1823,contrast,2021.2.3,60.03071172233945,
0.5,14,0,126,4,220.77473870001268,None,220.77473870001268,None,220.77473870001268,None,right,1.9120271000429057,220.8577148000477,None,220.77473870001268,None,222.79150740004843,None,m_rgb,001,2022_Jan_22_1823,contrast,2021.2.3,60.03071172233945,
0.6,14,1,127,6,223.00592780002626,None,223.00592780002626,None,223.00592780002626,None,right,0.4652535999775864,223.08918280003127,None,223.00592780002626,None,223.574542700022,None,m_rgb,001,2022_Jan_22_1823,contrast,2021.2.3,60.03071172233945,
0.45,14,2,128,3,223.78902900003595,None,223.78902900003595,None,223.78902900003595,None,right,1.1697492999956012,223.87170700001298,None,223.78902900003595,None,225.0729238000349,None,m_rgb,001,2022_Jan_22_1823,contrast,2021.2.3,60.03071172233945,
0.1,14,3,129,0,225.2875632000505,None,225.2875632000505,None,225.2875632000505,None,left,0.6150487000122666,225.37046850001207,None,225.2875632000505,None,226.02012729999842,None,m_rgb,001,2022_Jan_22_1823,contrast,2021.2.3,60.03071172233945,
0.55,14,4,130,5,226.22081329999492,None,226.22081329999492,None,226.22081329999492,None,right,0.5147316999500617,226.30390790000092,None,226.22081329999492,None,226.83792820002418,None,m_rgb,001,2022_Jan_22_1823,contrast,2021.2.3,60.03071172233945,
0.7,14,5,131,7,227.0524446000345,None,227.0524446000345,None,227.0524446000345,None,right,0.4339824000489898,227.13555440003984,None,227.0524446000345,None,227.58743559999857,None,m_rgb,001,2022_Jan_22_1823,contrast,2021.2.3,60.03071172233945,
0.9,14,6,132,8,227.80169140000362,None,227.80169140000362,None,227.80169140000362,None,right,0.4205688000074588,227.8848784000147,None,227.80169140000362,None,228.33666700002505,None,m_rgb,001,2022_Jan_22_1823,contrast,2021.2.3,60.03071172233945,
0.4,14,7,133,2,228.55101140000625,None,228.55101140000625,None,228.55101140000625,None,right,1.863679800007958,228.63419650000287,None,228.55101140000625,None,230.5183973000385,None,m_rgb,001,2022_Jan_22_1823,contrast,2021.2.3,60.03071172233945,
0.3,14,8,134,1,230.73265530000208,None,230.73265530000208,None,230.73265530000208,None,left,0.45110349997412413,230.81571220001206,None,230.73265530000208,None,231.2843899000436,None,m_rgb,001,2022_Jan_22_1823,contrast,2021.2.3,60.03071172233945,
0.45,15,0,135,3,231.4988680999959,None,231.4988680999959,None,231.4988680999959,None,right,0.6128264999715611,231.5817350000143,None,231.4988680999959,None,232.2165410000016,None,m_rgb,001,2022_Jan_22_1823,contrast,2021.2.3,60.03071172233945,
0.6,15,1,136,6,232.43103410000913,None,232.43103410000913,None,232.43103410000913,None,right,0.5767079000361264,232.5141389000346,None,232.43103410000913,None,233.11580780002987,None,m_rgb,001,2022_Jan_22_1823,contrast,2021.2.3,60.03071172233945,
0.5,15,2,137,4,233.33019800001057,None,233.33019800001057,None,233.33019800001057,None,right,0.5403042999678291,233.41333870001836,None,233.33019800001057,None,233.97955660003936,None,m_rgb,001,2022_Jan_22_1823,contrast,2021.2.3,60.03071172233945,
0.1,15,3,138,0,234.1796497000032,None,234.1796497000032,None,234.1796497000032,None,left,0.412129600008484,234.26274000003468,None,234.1796497000032,None,234.6979127000086,None,m_rgb,001,2022_Jan_22_1823,contrast,2021.2.3,60.03071172233945,
0.7,15,4,139,7,234.91247979999753,None,234.91247979999753,None,234.91247979999753,None,right,0.38383370003430173,234.99535929999547,None,234.91247979999753,None,235.39719370001694,None,m_rgb,001,2022_Jan_22_1823,contrast,2021.2.3,60.03071172233945,
0.3,15,5,140,1,235.61182010004995,None,235.61182010004995,None,235.61182010004995,None,right,3.4602167999837548,235.6948892000364,None,235.61182010004995,None,239.17722760001197,None,m_rgb,001,2022_Jan_22_1823,contrast,2021.2.3,60.03071172233945,
0.4,15,6,141,2,239.391781000013,None,239.391781000013,None,239.391781000013,None,right,4.480979899992235,239.4747760000173,None,239.391781000013,None,243.97346150001977,None,m_rgb,001,2022_Jan_22_1823,contrast,2021.2.3,60.03071172233945,
0.55,15,7,142,5,244.18748690001667,None,244.18748690001667,None,244.18748690001667,None,right,0.48358230001758784,244.270838299999,None,244.18748690001667,None,244.77249709999887,None,m_rgb,001,2022_Jan_22_1823,contrast,2021.2.3,60.03071172233945,
0.9,15,8,143,8,244.9868748000008,None,244.9868748000008,None,244.9868748000008,None,right,0.45185150002362207,245.06987649999792,None,244.9868748000008,None,245.5547263000044,None,m_rgb,001,2022_Jan_22_1823,contrast,2021.2.3,60.03071172233945,
0.4,16,0,144,2,245.76937049999833,None,245.76937049999833,None,245.76937049999833,None,right,0.5967184999608435,245.85289199999534,None,245.76937049999833,None,246.4724728000001,None,m_rgb,001,2022_Jan_22_1823,contrast,2021.2.3,60.03071172233945,
0.9,16,1,145,8,246.68686810001964,None,246.68686810001964,None,246.68686810001964,None,right,0.40103629999794066,246.76840570004424,None,246.68686810001964,None,247.18688590003876,None,m_rgb,001,2022_Jan_22_1823,contrast,2021.2.3,60.03071172233945,
0.3,16,2,146,1,247.40248550003162,None,247.40248550003162,None,247.40248550003162,None,right,1.1729226000024937,247.4846511000069,None,247.40248550003162,None,248.6899882000289,None,m_rgb,001,2022_Jan_22_1823,contrast,2021.2.3,60.03071172233945,
0.1,16,3,147,0,248.9023691000184,None,248.9023691000184,None,248.9023691000184,None,left,0.4266720999730751,248.98461210000096,None,248.9023691000184,None,249.4369453000254,None,m_rgb,001,2022_Jan_22_1823,contrast,2021.2.3,60.03071172233945,
0.5,16,4,148,4,249.6494714000146,None,249.6494714000146,None,249.6494714000146,None,right,0.5112615999532863,249.73251430003438,None,249.6494714000146,None,250.26843290001852,None,m_rgb,001,2022_Jan_22_1823,contrast,2021.2.3,60.03071172233945,
0.6,16,5,149,6,250.48220960004255,None,250.48220960004255,None,250.48220960004255,None,right,0.5410355000058189,250.56516710005235,None,250.48220960004255,None,251.13428170001134,None,m_rgb,001,2022_Jan_22_1823,contrast,2021.2.3,60.03071172233945,
0.45,16,6,150,3,251.34832680004183,None,251.34832680004183,None,251.34832680004183,None,right,0.5061288999859244,251.43139030004386,None,251.34832680004183,None,251.96624330000486,None,m_rgb,001,2022_Jan_22_1823,contrast,2021.2.3,60.03071172233945,
0.55,16,7,151,5,252.18072220002068,None,252.18072220002068,None,252.18072220002068,None,right,0.5859043000382371,252.26380549999885,None,252.18072220002068,None,252.88186459999997,None,m_rgb,001,2022_Jan_22_1823,contrast,2021.2.3,60.03071172233945,
0.7,16,8,152,7,253.09654980001505,None,253.09654980001505,None,253.09654980001505,None,right,0.583533700031694,253.17954430001555,None,253.09654980001505,None,253.78142240003217,None,m_rgb,001,2022_Jan_22_1823,contrast,2021.2.3,60.03071172233945,
0.5,17,0,153,4,253.99579430004815,None,253.99579430004815,None,253.99579430004815,None,right,0.7546833999804221,254.07875179999974,None,253.99579430004815,None,254.86389610002516,None,m_rgb,001,2022_Jan_22_1823,contrast,2021.2.3,60.03071172233945,
0.1,17,1,154,0,255.07806840003468,None,255.07806840003468,None,255.07806840003468,None,left,0.5042914000223391,255.1611111999955,None,255.07806840003468,None,255.6960245000082,None,m_rgb,001,2022_Jan_22_1823,contrast,2021.2.3,60.03071172233945,
0.55,17,2,155,5,255.89657670003362,None,255.89657670003362,None,255.89657670003362,None,right,0.7941515000420623,255.97723280003993,None,255.89657670003362,None,256.7974294000305,None,m_rgb,001,2022_Jan_22_1823,contrast,2021.2.3,60.03071172233945,
0.6,17,3,156,6,257.009935100039,None,257.009935100039,None,257.009935100039,None,right,0.5723084999481216,257.0931034000241,None,257.009935100039,None,257.69466140004806,None,m_rgb,001,2022_Jan_22_1823,contrast,2021.2.3,60.03071172233945,
0.7,17,4,157,7,257.90902620001,None,257.90902620001,None,257.90902620001,None,right,0.3955392999923788,257.9919357000035,None,257.90902620001,None,258.4111249000416,None,m_rgb,001,2022_Jan_22_1823,contrast,2021.2.3,60.03071172233945,
0.45,17,5,158,3,258.625400000019,None,258.625400000019,None,258.625400000019,None,right,0.5424523000256158,258.7085994000081,None,258.625400000019,None,259.27681609999854,None,m_rgb,001,2022_Jan_22_1823,contrast,2021.2.3,60.03071172233945,
0.4,17,6,159,2,259.4908763000276,None,259.4908763000276,None,259.4908763000276,None,right,1.0676524000009522,259.5738893999951,None,259.4908763000276,None,260.6586386000272,None,m_rgb,001,2022_Jan_22_1823,contrast,2021.2.3,60.03071172233945,
0.9,17,7,160,8,260.8731247000396,None,260.8731247000396,None,260.8731247000396,None,right,0.43737790000159293,260.9562358999974,None,260.8731247000396,None,261.42437050002627,None,m_rgb,001,2022_Jan_22_1823,contrast,2021.2.3,60.03071172233945,
0.3,17,8,161,1,261.63897650002036,None,261.63897650002036,None,261.63897650002036,None,left,0.4393462000298314,261.7221652000444,None,261.63897650002036,None,262.1883401000523,None,m_rgb,001,2022_Jan_22_1823,contrast,2021.2.3,60.03071172233945,
0.45,18,0,162,3,262.3883221000433,None,262.3883221000433,None,262.3883221000433,None,right,1.4827964000287466,262.47159120003926,None,262.3883221000433,None,263.972235000052,None,m_rgb,001,2022_Jan_22_1823,contrast,2021.2.3,60.03071172233945,
0.1,18,1,163,0,264.18671130004805,None,264.18671130004805,None,264.18671130004805,None,left,0.628882099990733,264.2699126000516,None,264.18671130004805,None,264.92214910004986,None,m_rgb,001,2022_Jan_22_1823,contrast,2021.2.3,60.03071172233945,
0.4,18,2,164,2,265.13659520004876,None,265.13659520004876,None,265.13659520004876,None,right,0.4799959000083618,265.21893870003987,None,265.13659520004876,None,265.72123910003575,None,m_rgb,001,2022_Jan_22_1823,contrast,2021.2.3,60.03071172233945,
0.9,18,3,165,8,265.9355828000116,None,265.9355828000116,None,265.9355828000116,None,right,0.4005036999587901,266.01844240003265,None,265.9355828000116,None,266.43737490003696,None,m_rgb,001,2022_Jan_22_1823,contrast,2021.2.3,60.03071172233945,
0.7,18,4,166,7,266.6513236000319,None,266.6513236000319,None,266.6513236000319,None,right,0.37108159996569157,266.7346066000173,None,266.6513236000319,None,267.13828650000505,None,m_rgb,001,2022_Jan_22_1823,contrast,2021.2.3,60.03071172233945,
0.55,18,5,167,5,267.3507343000383,None,267.3507343000383,None,267.3507343000383,None,right,0.29685759998392314,267.43396490003215,None,267.3507343000383,None,267.75258710002527,None,m_rgb,001,2022_Jan_22_1823,contrast,2021.2.3,60.03071172233945,
0.3,18,6,168,1,267.9670955000329,None,267.9670955000329,None,267.9670955000329,None,left,0.51144650002243,268.05002360005165,None,267.9670955000329,None,268.58278840000276,None,m_rgb,001,2022_Jan_22_1823,contrast,2021.2.3,60.03071172233945,
0.6,18,7,169,6,268.7835858000326,None,268.7835858000326,None,268.7835858000326,None,right,0.8170223999768496,268.8658875999972,None,268.7835858000326,None,269.7010493000271,None,m_rgb,001,2022_Jan_22_1823,contrast,2021.2.3,60.03071172233945,
0.5,18,8,170,4,269.91527110000607,None,269.91527110000607,None,269.91527110000607,None,right,0.4679376999847591,269.99823870003456,None,269.91527110000607,None,270.4862789000035,None,m_rgb,001,2022_Jan_22_1823,contrast,2021.2.3,60.03071172233945,
0.3,19,0,171,1,270.6982772000483,None,270.6982772000483,None,270.6982772000483,None,right,1.668587899999693,270.7810441000038,None,270.6982772000483,None,272.48283000005176,None,m_rgb,001,2022_Jan_22_1823,contrast,2021.2.3,60.03071172233945,
0.7,19,1,172,7,272.69615299999714,None,272.69615299999714,None,272.69615299999714,None,right,0.40622659999644384,272.77918910002336,None,272.69615299999714,None,273.21431870001834,None,m_rgb,001,2022_Jan_22_1823,contrast,2021.2.3,60.03071172233945,
0.9,19,2,173,8,273.4288299000473,None,273.4288299000473,None,273.4288299000473,None,right,0.36264379997737706,273.51229710003827,None,273.4288299000473,None,273.8974539000192,None,m_rgb,001,2022_Jan_22_1823,contrast,2021.2.3,60.03071172233945,
0.1,19,3,174,0,274.111455700011,None,274.111455700011,None,274.111455700011,None,left,0.46412509999936447,274.1946409000084,None,274.111455700011,None,274.68010550003964,None,m_rgb,001,2022_Jan_22_1823,contrast,2021.2.3,60.03071172233945,
0.55,19,4,175,5,274.8803513000021,None,274.8803513000021,None,274.8803513000021,None,right,0.929648699995596,274.9607901000418,None,274.8803513000021,None,275.9266415000311,None,m_rgb,001,2022_Jan_22_1823,contrast,2021.2.3,60.03071172233945,
0.5,19,5,176,4,276.12743940000655,None,276.12743940000655,None,276.12743940000655,None,right,1.4879394000163302,276.2095660000341,None,276.12743940000655,None,277.72981690004235,None,m_rgb,001,2022_Jan_22_1823,contrast,2021.2.3,60.03071172233945,
0.4,19,6,177,2,277.9412329000188,None,277.9412329000188,None,277.9412329000188,None,right,1.4007405000156723,278.02472070005024,None,277.9412329000188,None,279.4420536000398,None,m_rgb,001,2022_Jan_22_1823,contrast,2021.2.3,60.03071172233945,
0.6,19,7,178,6,279.6567533000489,None,279.6567533000489,None,279.6567533000489,None,right,0.46971899998607114,279.7398025000002,None,279.6567533000489,None,280.24116460001096,None,m_rgb,001,2022_Jan_22_1823,contrast,2021.2.3,60.03071172233945,
0.45,19,8,179,3,280.45632710005157,None,280.45632710005157,None,280.45632710005157,None,right,3.03218109998852,280.53901629999746,None,280.45632710005157,None,283.59036440000637,None,m_rgb,001,2022_Jan_22_1823,contrast,2021.2.3,60.03071172233945,
0.3,20,0,180,1,283.802854700014,None,283.802854700014,None,283.802854700014,None,right,1.1711703999899328,283.886255600024,None,283.802854700014,None,285.08726880000904,None,m_rgb,001,2022_Jan_22_1823,contrast,2021.2.3,60.03071172233945,
0.5,20,1,181,4,285.3017080000136,None,285.3017080000136,None,285.3017080000136,None,right,0.5368043999769725,285.38470110000344,None,285.3017080000136,None,285.95298830000684,None,m_rgb,001,2022_Jan_22_1823,contrast,2021.2.3,60.03071172233945,
0.4,20,2,182,2,286.1677755000419,None,286.1677755000419,None,286.1677755000419,None,right,1.2544932999880984,286.2509824000299,None,286.1677755000419,None,287.5373410000466,None,m_rgb,001,2022_Jan_22_1823,contrast,2021.2.3,60.03071172233945,
0.45,20,3,183,3,287.74970390001545,None,287.74970390001545,None,287.74970390001545,None,right,0.4263428999693133,287.83265130000655,None,287.74970390001545,None,288.2846696000197,None,m_rgb,001,2022_Jan_22_1823,contrast,2021.2.3,60.03071172233945,
0.6,20,4,184,6,288.4999472000054,None,288.4999472000054,None,288.4999472000054,None,right,0.41303170000901446,288.58197370002745,None,288.4999472000054,None,289.0177471000352,None,m_rgb,001,2022_Jan_22_1823,contrast,2021.2.3,60.03071172233945,
0.7,20,5,185,7,289.23190579999937,None,289.23190579999937,None,289.23190579999937,None,right,0.4313203999772668,289.3148066000431,None,289.23190579999937,None,289.7667453000322,None,m_rgb,001,2022_Jan_22_1823,contrast,2021.2.3,60.03071172233945,
0.55,20,6,186,5,289.98107040004106,None,289.98107040004106,None,289.98107040004106,None,right,0.785531000001356,290.06406100001186,None,289.98107040004106,None,290.882019200013,None,m_rgb,001,2022_Jan_22_1823,contrast,2021.2.3,60.03071172233945,
0.9,20,7,187,8,291.09721060004085,None,291.09721060004085,None,291.09721060004085,None,right,0.48594699997920543,291.1796753000235,None,291.09721060004085,None,291.6820209000143,None,m_rgb,001,2022_Jan_22_1823,contrast,2021.2.3,60.03071172233945,
0.1,20,8,188,0,291.8961020000279,None,291.8961020000279,None,291.8961020000279,None,left,0.6150686999899335,291.97924559999956,None,291.8961020000279,None,292.6171368000214,None,m_rgb,001,2022_Jan_22_1823,contrast,2021.2.3,60.03071172233945,
0.55,21,0,189,5,292.82876630005194,None,292.82876630005194,None,292.82876630005194,None,right,0.3537855999893509,292.91190740000457,None,292.82876630005194,None,293.2967224000022,None,m_rgb,001,2022_Jan_22_1823,contrast,2021.2.3,60.03071172233945,
0.1,21,1,190,0,293.511757500004,None,293.511757500004,None,293.511757500004,None,left,0.3922891999827698,293.5947497000452,None,293.511757500004,None,294.0143145000329,None,m_rgb,001,2022_Jan_22_1823,contrast,2021.2.3,60.03071172233945,
0.4,21,2,191,2,294.22729150002124,None,294.22729150002124,None,294.22729150002124,None,right,0.47639269998762757,294.310654800036,None,294.22729150002124,None,294.8097430000198,None,m_rgb,001,2022_Jan_22_1823,contrast,2021.2.3,60.03071172233945,
0.7,21,3,192,7,295.0107641000068,None,295.0107641000068,None,295.0107641000068,None,right,0.3799836999969557,295.09342780004954,None,295.0107641000068,None,295.4958961000084,None,m_rgb,001,2022_Jan_22_1823,contrast,2021.2.3,60.03071172233945,
0.3,21,4,193,1,295.70942510000896,None,295.70942510000896,None,295.70942510000896,None,right,1.3611922999843955,295.79236400005175,None,295.70942510000896,None,297.1744260000414,None,m_rgb,001,2022_Jan_22_1823,contrast,2021.2.3,60.03071172233945,
0.9,21,5,194,8,297.37563200003933,None,297.37563200003933,None,297.37563200003933,None,right,0.432518900022842,297.45827950001694,None,297.37563200003933,None,297.90966400003526,None,m_rgb,001,2022_Jan_22_1823,contrast,2021.2.3,60.03071172233945,
0.5,21,6,195,4,298.12418360001175,None,298.12418360001175,None,298.12418360001175,None,right,0.7377652000286616,298.20761590002803,None,298.12418360001175,None,298.9751201000181,None,m_rgb,001,2022_Jan_22_1823,contrast,2021.2.3,60.03071172233945,
0.45,21,7,196,3,299.18968040001346,None,299.18968040001346,None,299.18968040001346,None,right,1.7047812000382692,299.2727017000434,None,299.18968040001346,None,301.0065939000342,None,m_rgb,001,2022_Jan_22_1823,contrast,2021.2.3,60.03071172233945,
0.6,21,8,197,6,301.2212244000402,None,301.2212244000402,None,301.2212244000402,None,right,0.41052350000245497,301.3045307000284,None,301.2212244000402,None,301.7420618000324,None,m_rgb,001,2022_Jan_22_1823,contrast,2021.2.3,60.03071172233945,
0.5,22,0,198,4,301.9538779000286,None,301.9538779000286,None,301.9538779000286,None,right,0.42996859998675063,302.03682160004973,None,301.9538779000286,None,302.488869599998,None,m_rgb,001,2022_Jan_22_1823,contrast,2021.2.3,60.03071172233945,
0.4,22,1,199,2,302.70357559999684,None,302.70357559999684,None,302.70357559999684,None,right,0.4158336999826133,302.786413200025,None,302.70357559999684,None,303.2234025000362,None,m_rgb,001,2022_Jan_22_1823,contrast,2021.2.3,60.03071172233945,
0.7,22,2,200,7,303.43620210001245,None,303.43620210001245,None,303.43620210001245,None,right,0.4508650000207126,303.51934510003775,None,303.43620210001245,None,303.9876720000175,None,m_rgb,001,2022_Jan_22_1823,contrast,2021.2.3,60.03071172233945,
0.55,22,3,201,5,304.20170730003156,None,304.20170730003156,None,304.20170730003156,None,right,0.4843937000259757,304.28510130004724,None,304.20170730003156,None,304.7863645000034,None,m_rgb,001,2022_Jan_22_1823,contrast,2021.2.3,60.03071172233945,
0.1,22,4,202,0,305.00114420003956,None,305.00114420003956,None,305.00114420003956,None,left,0.4852991999941878,305.0842488000053,None,305.00114420003956,None,305.60244410001906,None,m_rgb,001,2022_Jan_22_1823,contrast,2021.2.3,60.03071172233945,
0.3,22,5,203,1,305.8169649000047,None,305.8169649000047,None,305.8169649000047,None,left,2.326686599990353,305.90011240000604,None,305.8169649000047,None,308.2648524999968,None,m_rgb,001,2022_Jan_22_1823,contrast,2021.2.3,60.03071172233945,
0.45,22,6,204,3,308.46513990004314,None,308.46513990004314,None,308.46513990004314,None,right,0.36686910002026707,308.5483604000183,None,308.46513990004314,None,308.9329311000183,None,m_rgb,001,2022_Jan_22_1823,contrast,2021.2.3,60.03071172233945,
0.9,22,7,205,8,309.14739190001274,None,309.14739190001274,None,309.14739190001274,None,right,0.4028785999980755,309.2306478000246,None,309.14739190001274,None,309.6651766000432,None,m_rgb,001,2022_Jan_22_1823,contrast,2021.2.3,60.03071172233945,
0.6,22,8,206,6,309.88037339999573,None,309.88037339999573,None,309.88037339999573,None,right,0.5180768000427634,309.96355210000183,None,309.88037339999573,None,310.5153111999971,None,m_rgb,001,2022_Jan_22_1823,contrast,2021.2.3,60.03071172233945,
0.4,23,0,207,2,310.7294496000395,None,310.7294496000395,None,310.7294496000395,None,right,1.4130875999690033,310.81257130001904,None,310.7294496000395,None,312.2470453000278,None,m_rgb,001,2022_Jan_22_1823,contrast,2021.2.3,60.03071172233945,
0.55,23,1,208,5,312.4619382999954,None,312.4619382999954,None,312.4619382999954,None,right,0.4346056000213139,312.5444676000043,None,312.4619382999954,None,312.996880300052,None,m_rgb,001,2022_Jan_22_1823,contrast,2021.2.3,60.03071172233945,
0.7,23,2,209,7,313.21091540000634,None,313.21091540000634,None,313.21091540000634,None,right,0.35556229995563626,313.29381410003407,None,313.21091540000634,None,313.6809359000181,None,m_rgb,001,2022_Jan_22_1823,contrast,2021.2.3,60.03071172233945,
0.3,23,3,210,1,313.89341760001844,None,313.89341760001844,None,313.89341760001844,None,right,0.33011580002494156,313.9765180000104,None,313.89341760001844,None,314.3285133000463,None,m_rgb,001,2022_Jan_22_1823,contrast,2021.2.3,60.03071172233945,
0.6,23,4,211,6,314.5426265000133,None,314.5426265000133,None,314.5426265000133,None,right,0.35164479998638853,314.6258986000321,None,314.5426265000133,None,315.0104065000196,None,m_rgb,001,2022_Jan_22_1823,contrast,2021.2.3,60.03071172233945,
0.1,23,5,212,0,315.2253861000063,None,315.2253861000063,None,315.2253861000063,None,left,2.261791400029324,315.30886010004906,None,315.2253861000063,None,317.5924509000033,None,m_rgb,001,2022_Jan_22_1823,contrast,2021.2.3,60.03071172233945,
0.5,23,6,213,4,317.8068884999957,None,317.8068884999957,None,317.8068884999957,None,right,0.28766109998105094,317.88982330000727,None,317.8068884999957,None,318.2080749000306,None,m_rgb,001,2022_Jan_22_1823,contrast,2021.2.3,60.03071172233945,
0.45,23,7,214,3,318.4229568000301,None,318.4229568000301,None,318.4229568000301,None,right,0.3926791999838315,318.50640030001523,None,318.4229568000301,None,318.92503650003346,None,m_rgb,001,2022_Jan_22_1823,contrast,2021.2.3,60.03071172233945,
0.9,23,8,215,8,319.13886010000715,None,319.13886010000715,None,319.13886010000715,None,right,0.3329423999530263,319.2218579000328,None,319.13886010000715,None,319.57370140001876,None,m_rgb,001,2022_Jan_22_1823,contrast,2021.2.3,60.03071172233945,
0.3,24,0,216,1,319.78804840001976,None,319.78804840001976,None,319.78804840001976,None,right,0.2599068999988958,319.871303300024,None,319.78804840001976,None,320.1566318999976,None,m_rgb,001,2022_Jan_22_1823,contrast,2021.2.3,60.03071172233945,
0.45,24,1,217,3,320.37081940000644,None,320.37081940000644,None,320.37081940000644,None,right,0.3471445999457501,320.4542463000398,None,320.37081940000644,None,320.84156520001125,None,m_rgb,001,2022_Jan_22_1823,contrast,2021.2.3,60.03071172233945,
0.5,24,2,218,4,321.0539284000406,None,321.0539284000406,None,321.0539284000406,None,right,0.3844558999990113,321.13689640001394,None,321.0539284000406,None,321.5389678000356,None,m_rgb,001,2022_Jan_22_1823,contrast,2021.2.3,60.03071172233945,
0.6,24,3,219,6,321.75433250004426,None,321.75433250004426,None,321.75433250004426,None,right,0.3411354999989271,321.83694510004716,None,321.75433250004426,None,322.205160100013,None,m_rgb,001,2022_Jan_22_1823,contrast,2021.2.3,60.03071172233945,
0.9,24,4,220,8,322.4197537000291,None,322.4197537000291,None,322.4197537000291,None,right,0.34687040001153946,322.5026043000398,None,322.4197537000291,None,322.8713877000264,None,m_rgb,001,2022_Jan_22_1823,contrast,2021.2.3,60.03071172233945,
0.55,24,5,221,5,323.08557180000935,None,323.08557180000935,None,323.08557180000935,None,right,0.43310399999609217,323.1685452000238,None,323.08557180000935,None,323.63498900004197,None,m_rgb,001,2022_Jan_22_1823,contrast,2021.2.3,60.03071172233945,
0.1,24,6,222,0,323.83588430000236,None,323.83588430000236,None,323.83588430000236,None,left,1.316254100005608,323.91824050003197,None,323.83588430000236,None,325.25226060004206,None,m_rgb,001,2022_Jan_22_1823,contrast,2021.2.3,60.03071172233945,
0.4,24,7,223,2,325.46768940001493,None,325.46768940001493,None,325.46768940001493,None,right,0.5963439000188373,325.55006570002297,None,325.46768940001493,None,326.16870700003346,None,m_rgb,001,2022_Jan_22_1823,contrast,2021.2.3,60.03071172233945,
0.7,24,8,224,7,326.3834759000456,None,326.3834759000456,None,326.3834759000456,None,right,0.3839049999951385,326.4662680000183,None,326.3834759000456,None,326.86971410003025,None,m_rgb,001,2022_Jan_22_1823,contrast,2021.2.3,60.03071172233945,
0.1,25,0,225,0,327.0822274000384,None,327.0822274000384,None,327.0822274000384,None,right,3.3486388999735937,327.1651579000172,None,327.0822274000384,None,330.53135050000856,None,m_rgb,001,2022_Jan_22_1823,contrast,2021.2.3,60.03071172233945,
0.7,25,1,226,7,330.7457380000269,None,330.7457380000269,None,330.7457380000269,None,right,0.3272352000349201,330.82847420003964,None,330.7457380000269,None,331.1807226000237,None,m_rgb,001,2022_Jan_22_1823,contrast,2021.2.3,60.03071172233945,
0.9,25,2,227,8,331.39503410004545,None,331.39503410004545,None,331.39503410004545,None,right,0.300462500017602,331.4779474000097,None,331.39503410004545,None,331.79771519999485,None,m_rgb,001,2022_Jan_22_1823,contrast,2021.2.3,60.03071172233945,
0.5,25,3,228,4,332.0111483000219,None,332.0111483000219,None,332.0111483000219,None,right,0.5799951999797486,332.09402980003506,None,332.0111483000219,None,332.69618090003496,None,m_rgb,001,2022_Jan_22_1823,contrast,2021.2.3,60.03071172233945,
0.4,25,4,229,2,332.91030720004346,None,332.91030720004346,None,332.91030720004346,None,right,0.6260305000469089,332.9931476000347,None,332.91030720004346,None,333.64558180002496,None,m_rgb,001,2022_Jan_22_1823,contrast,2021.2.3,60.03071172233945,
0.6,25,5,230,6,333.85947920003673,None,333.85947920003673,None,333.85947920003673,None,right,0.6670549000264145,333.9425503000384,None,333.85947920003673,None,334.627964000043,None,m_rgb,001,2022_Jan_22_1823,contrast,2021.2.3,60.03071172233945,
0.3,25,6,231,1,334.84162860002834,None,334.84162860002834,None,334.84162860002834,None,right,1.1884620999917388,334.9249681000365,None,334.84162860002834,None,336.1427564000478,None,m_rgb,001,2022_Jan_22_1823,contrast,2021.2.3,60.03071172233945,
0.45,25,7,232,3,336.35683180001797,None,336.35683180001797,None,336.35683180001797,None,right,0.4418045999482274,336.44026440003654,None,336.35683180001797,None,336.9087938000448,None,m_rgb,001,2022_Jan_22_1823,contrast,2021.2.3,60.03071172233945,
0.55,25,8,233,5,337.1231406000443,None,337.1231406000443,None,337.1231406000443,None,right,0.4611761999549344,337.20640890003415,None,337.1231406000443,None,337.69149490003474,None,m_rgb,001,2022_Jan_22_1823,contrast,2021.2.3,60.03071172233945,
0.7,26,0,234,7,337.90570160001516,None,337.90570160001516,None,337.90570160001516,None,right,0.41420020000077784,337.98907020001207,None,337.90570160001516,None,338.4289726000279,None,m_rgb,001,2022_Jan_22_1823,contrast,2021.2.3,60.03071172233945,
0.3,26,1,235,1,338.6408599000424,None,338.6408599000424,None,338.6408599000424,None,right,0.5442898000474088,338.72237750003114,None,338.6408599000424,None,339.29041420004796,None,m_rgb,001,2022_Jan_22_1823,contrast,2021.2.3,60.03071172233945,
0.9,26,2,236,8,339.5054242000333,None,339.5054242000333,None,339.5054242000333,None,right,0.398562700022012,339.58777820004616,None,339.5054242000333,None,340.0059344000183,None,m_rgb,001,2022_Jan_22_1823,contrast,2021.2.3,60.03071172233945,
0.4,26,3,237,2,340.22024660004536,None,340.22024660004536,None,340.22024660004536,None,right,0.46730900002876297,340.30364520003786,None,340.22024660004536,None,340.7885654999991,None,m_rgb,001,2022_Jan_22_1823,contrast,2021.2.3,60.03071172233945,
0.6,26,4,238,6,341.00306240003556,None,341.00306240003556,None,341.00306240003556,None,right,0.354599500016775,341.08677100000205,None,341.00306240003556,None,341.47130840003956,None,m_rgb,001,2022_Jan_22_1823,contrast,2021.2.3,60.03071172233945,
0.5,26,5,239,4,341.68560110003455,None,341.68560110003455,None,341.68560110003455,None,right,0.3298914000042714,341.76898680004524,None,341.68560110003455,None,342.12107530003414,None,m_rgb,001,2022_Jan_22_1823,contrast,2021.2.3,60.03071172233945,
0.45,26,6,240,3,342.33508490002714,None,342.33508490002714,None,342.33508490002714,None,right,1.0700273999827914,342.4193226000061,None,342.33508490002714,None,343.5195300000487,None,m_rgb,001,2022_Jan_22_1823,contrast,2021.2.3,60.03071172233945,
0.1,26,7,241,0,343.73422270000447,None,343.73422270000447,None,343.73422270000447,None,left,1.0810158000094816,343.81731060001766,None,343.73422270000447,None,344.9185687000281,None,m_rgb,001,2022_Jan_22_1823,contrast,2021.2.3,60.03071172233945,
0.55,26,8,242,5,345.1326477000257,None,345.1326477000257,None,345.1326477000257,None,right,0.3853607999626547,345.216063400032,None,345.1326477000257,None,345.6176905000466,None,m_rgb,001,2022_Jan_22_1823,contrast,2021.2.3,60.03071172233945,
0.4,27,0,243,2,345.83274570002686,None,345.83274570002686,None,345.83274570002686,None,right,0.534092000045348,345.91559610003605,None,345.83274570002686,None,346.46687000000384,None,m_rgb,001,2022_Jan_22_1823,contrast,2021.2.3,60.03071172233945,
0.9,27,1,244,8,346.68150470004184,None,346.68150470004184,None,346.68150470004184,None,right,0.3727735999855213,346.76473850000184,None,346.68150470004184,None,347.1661201000097,None,m_rgb,001,2022_Jan_22_1823,contrast,2021.2.3,60.03071172233945,
0.45,27,2,245,3,347.3676695000031,None,347.3676695000031,None,347.3676695000031,None,right,0.6674287000205368,347.4473583000363,None,347.3676695000031,None,348.1325085000135,None,m_rgb,001,2022_Jan_22_1823,contrast,2021.2.3,60.03071172233945,
0.55,27,3,246,5,348.34704399999464,None,348.34704399999464,None,348.34704399999464,None,right,0.3394576000282541,348.42997930001,None,348.34704399999464,None,348.80135030002566,None,m_rgb,001,2022_Jan_22_1823,contrast,2021.2.3,60.03071172233945,
0.1,27,4,247,0,349.0128373000189,None,349.0128373000189,None,349.0128373000189,None,left,0.9373604999855161,349.0960369000095,None,349.0128373000189,None,350.0634471999947,None,m_rgb,001,2022_Jan_22_1823,contrast,2021.2.3,60.03071172233945,
0.7,27,5,248,7,350.27811770001426,None,350.27811770001426,None,350.27811770001426,None,right,0.32989559997804463,350.3613602000405,None,350.27811770001426,None,350.71366770000895,None,m_rgb,001,2022_Jan_22_1823,contrast,2021.2.3,60.03071172233945,
0.6,27,6,249,6,350.92839549999917,None,350.92839549999917,None,350.92839549999917,None,right,0.38417069998104125,351.010892899998,None,350.92839549999917,None,351.41263060003985,None,m_rgb,001,2022_Jan_22_1823,contrast,2021.2.3,60.03071172233945,
0.5,27,7,250,4,351.62707770004636,None,351.62707770004636,None,351.62707770004636,None,right,0.3549380000331439,351.7104415000067,None,351.62707770004636,None,352.0951391000417,None,m_rgb,001,2022_Jan_22_1823,contrast,2021.2.3,60.03071172233945,
0.3,27,8,251,1,352.30987410002854,None,352.30987410002854,None,352.30987410002854,None,right,0.31277360004605725,352.39300020004157,None,352.30987410002854,None,352.7427414000267,None,m_rgb,001,2022_Jan_22_1823,contrast,2021.2.3,60.03071172233945,
0.5,28,0,252,4,352.9426495000371,None,352.9426495000371,None,352.9426495000371,None,right,0.5933159000123851,353.0258157000062,None,352.9426495000371,None,353.64420850004535,None,m_rgb,001,2022_Jan_22_1823,contrast,2021.2.3,60.03071172233945,
0.1,28,1,253,0,353.8585893000127,None,353.8585893000127,None,353.8585893000127,None,right,0.3477462999871932,353.9418016000418,None,353.8585893000127,None,354.32489990000613,None,m_rgb,001,2022_Jan_22_1823,contrast,2021.2.3,60.03071172233945,
0.6,28,2,254,6,354.52477110002656,None,354.52477110002656,None,354.52477110002656,None,right,0.35360919998493046,354.6079290000489,None,354.52477110002656,None,354.99319670000114,None,m_rgb,001,2022_Jan_22_1823,contrast,2021.2.3,60.03071172233945,
0.55,28,3,255,5,355.2073231000104,None,355.2073231000104,None,355.2073231000104,None,right,0.32854240003507584,355.2904449000489,None,355.2073231000104,None,355.6426571000484,None,m_rgb,001,2022_Jan_22_1823,contrast,2021.2.3,60.03071172233945,
0.45,28,4,256,3,355.85670510004275,None,355.85670510004275,None,355.85670510004275,None,right,0.33349160000216216,355.9401735000429,None,355.85670510004275,None,356.2918050000444,None,m_rgb,001,2022_Jan_22_1823,contrast,2021.2.3,60.03071172233945,
0.9,28,5,257,8,356.5065212000045,None,356.5065212000045,None,356.5065212000045,None,right,0.37213579996023327,356.5892888000235,None,356.5065212000045,None,356.99100290000206,None,m_rgb,001,2022_Jan_22_1823,contrast,2021.2.3,60.03071172233945,
0.4,28,6,258,2,357.20565240003634,None,357.20565240003634,None,357.20565240003634,None,right,0.7298925000359304,357.2887164000422,None,357.20565240003634,None,358.04082660004497,None,m_rgb,001,2022_Jan_22_1823,contrast,2021.2.3,60.03071172233945,
0.3,28,7,259,1,358.2547345000203,None,358.2547345000203,None,358.2547345000203,None,right,1.4874058999703266,358.3379646000103,None,358.2547345000203,None,359.8554349000333,None,m_rgb,001,2022_Jan_22_1823,contrast,2021.2.3,60.03071172233945,
0.7,28,8,260,7,360.0699257000233,None,360.0699257000233,None,360.0699257000233,None,right,0.5523239000467584,360.1530912000453,None,360.0699257000233,None,360.7380693000159,None,m_rgb,001,2022_Jan_22_1823,contrast,2021.2.3,60.03071172233945,
0.7,29,0,261,7,360.9525455000112,None,360.9525455000112,None,360.9525455000112,None,right,0.390097199997399,361.035542800033,None,360.9525455000112,None,361.4539697000291,None,m_rgb,001,2022_Jan_22_1823,contrast,2021.2.3,60.03071172233945,
0.55,29,1,262,5,361.66829100000905,None,361.66829100000905,None,361.66829100000905,None,right,0.5539637000183575,361.751454000012,None,361.66829100000905,None,362.3362890999997,None,m_rgb,001,2022_Jan_22_1823,contrast,2021.2.3,60.03071172233945,
0.5,29,2,263,4,362.55089110002154,None,362.55089110002154,None,362.55089110002154,None,right,0.8088303999975324,362.6340683000162,None,362.55089110002154,None,363.4708128000493,None,m_rgb,001,2022_Jan_22_1823,contrast,2021.2.3,60.03071172233945,
0.6,29,3,264,6,363.68330070003867,None,363.68330070003867,None,363.68330070003867,None,right,0.3639664000365883,363.766572499997,None,363.68330070003867,None,364.15172290004557,None,m_rgb,001,2022_Jan_22_1823,contrast,2021.2.3,60.03071172233945,
0.9,29,4,265,8,364.36596389999613,None,364.36596389999613,None,364.36596389999613,None,right,0.3358591999858618,364.4495476000011,None,364.36596389999613,None,364.8175203000428,None,m_rgb,001,2022_Jan_22_1823,contrast,2021.2.3,60.03071172233945,
0.4,29,5,266,2,365.03252570005134,None,365.03252570005134,None,365.03252570005134,None,right,0.24600939999800175,365.11548080004286,None,365.03252570005134,None,365.39822910004295,None,m_rgb,001,2022_Jan_22_1823,contrast,2021.2.3,60.03071172233945,
0.45,29,6,267,3,365.59901570004877,None,365.59901570004877,None,365.59901570004877,None,right,0.8323711999692023,365.681616100017,None,365.59901570004877,None,366.53672820003703,None,m_rgb,001,2022_Jan_22_1823,contrast,2021.2.3,60.03071172233945,
0.3,29,7,268,1,366.7472948000068,None,366.7472948000068,None,366.7472948000068,None,right,1.060617099981755,366.8305508000194,None,366.7472948000068,None,367.9155447999947,None,m_rgb,001,2022_Jan_22_1823,contrast,2021.2.3,60.03071172233945,
0.1,29,8,269,0,368.1293608000269,None,368.1293608000269,None,368.1293608000269,None,left,3.6936405999585986,368.2126130000106,None,368.1293608000269,None,371.9284066000255,None,m_rgb,001,2022_Jan_22_1823,contrast,2021.2.3,60.03071172233945,
